"Time (s)","Acceleration x (m/s^2)","Acceleration y (m/s^2)","Acceleration z (m/s^2)"
2.850418500E-2,5.206789970E0,5.596446514E0,7.611765862E0
3.051012200E-2,5.120598793E0,5.653907299E0,7.578247070E0
3.251809100E-2,5.082291603E0,5.792770863E0,7.645284653E0
3.452809100E-2,5.096656799E0,5.835866451E0,7.674015045E0
3.654007000E-2,5.096656799E0,5.855020046E0,7.693168640E0
3.855387200E-2,5.077503204E0,5.869385242E0,7.702745438E0
4.056928900E-2,5.015254021E0,5.883750439E0,7.712322235E0
4.258606000E-2,4.967370033E0,5.926846504E0,7.731475830E0
4.460387200E-2,4.852448463E0,5.931634903E0,7.650073051E0
4.662236200E-2,4.708796024E0,5.821501255E0,7.487267494E0
4.864116400E-2,4.804564476E0,5.807136059E0,7.544728279E0
5.065996600E-2,4.718372822E0,5.797559261E0,7.515997887E0
5.267022600E-2,4.641758442E0,5.768828869E0,7.329249859E0
5.468043500E-2,4.541202068E0,5.754463673E0,7.199963093E0
5.669064300E-2,4.450222492E0,5.768828869E0,7.099406719E0
5.870085100E-2,4.320935726E0,5.773617268E0,6.974907875E0
6.071106000E-2,4.225167274E0,5.797559261E0,6.879139900E0
6.272126800E-2,4.162918091E0,5.768828869E0,6.845621109E0
6.473147600E-2,4.110245705E0,5.720944881E0,6.821679115E0
6.674168500E-2,4.138976097E0,5.663484097E0,6.821679115E0
6.875189300E-2,4.182071686E0,5.606023312E0,6.950965881E0
7.076210100E-2,4.292205334E0,5.500678539E0,7.075464725E0
7.277231000E-2,4.330512524E0,5.390544891E0,7.137713909E0
7.478251800E-2,4.287416458E0,5.285200119E0,7.132925510E0
7.679272600E-2,4.225167274E0,5.289988518E0,7.142502308E0
7.880293500E-2,4.182071686E0,5.270834923E0,7.147290707E0
8.081314300E-2,4.138976097E0,5.299565315E0,7.156867504E0
8.282335100E-2,4.057573318E0,5.357026100E0,7.171232700E0
8.483356000E-2,4.000112534E0,5.390544891E0,7.190386295E0
8.684376800E-2,3.928286552E0,5.443217754E0,7.180809498E0
8.885397600E-2,3.842095137E0,5.481524944E0,7.147290707E0
9.086418500E-2,3.779845953E0,5.476736546E0,7.166444302E0
9.287439300E-2,3.708019972E0,5.495890141E0,7.147290707E0
9.488460100E-2,3.612251759E0,5.500678539E0,7.065887928E0
9.689481000E-2,3.559579372E0,5.486313343E0,7.046734333E0
9.890501800E-2,3.506906986E0,5.505466938E0,6.989273548E0
1.009152260E-1,3.425503969E0,5.486313343E0,6.955754280E0
1.029254350E-1,3.377619982E0,5.467159748E0,6.927023888E0
1.049356430E-1,3.329735994E0,5.448006153E0,6.883928299E0
1.069458510E-1,3.296217203E0,5.414487362E0,6.879139900E0
1.089560600E-1,3.267486811E0,5.385756493E0,6.816890717E0
1.109662680E-1,3.253121614E0,5.361814499E0,6.725911140E0
1.129764760E-1,3.243544817E0,5.323507309E0,6.634931564E0
1.149866850E-1,3.219602823E0,5.285200119E0,6.558317184E0
1.169968930E-1,3.190872431E0,5.266046524E0,6.500856400E0
1.190071530E-1,3.128623009E0,5.251681328E0,6.452971935E0
1.210174140E-1,3.138199806E0,5.232527733E0,6.419453144E0
1.230276740E-1,3.109469414E0,5.213374138E0,6.424241543E0
1.250379350E-1,3.071162224E0,5.203797340E0,6.500856400E0
1.270481950E-1,3.071162224E0,5.184643745E0,6.587047577E0
1.290552260E-1,3.028066635E0,5.189432144E0,6.630143166E0
1.310622570E-1,2.980182648E0,5.194220543E0,6.658873558E0
1.330697050E-1,3.004124641E0,5.194220543E0,6.658873558E0
1.350776740E-1,2.999336243E0,5.199008942E0,6.711545944E0
1.370862160E-1,2.989759445E0,5.213374138E0,6.759429932E0
1.390953820E-1,3.008913040E0,5.189432144E0,6.807313919E0
1.411051740E-1,3.052008629E0,5.160701752E0,6.859986305E0
1.431155910E-1,3.075950623E0,5.131971359E0,6.936600685E0
1.451266320E-1,3.061585426E0,5.103240967E0,7.065887928E0
1.471381950E-1,3.075950623E0,5.093664169E0,7.209539890E0
1.491502260E-1,3.066373825E0,5.036203384E0,7.300519466E0
1.511626220E-1,3.080739021E0,4.983530998E0,7.415441036E0
1.531752780E-1,3.052008629E0,4.964377403E0,7.515997887E0
1.551880910E-1,3.023278236E0,4.997896194E0,7.592612267E0
1.572009550E-1,2.994547844E0,5.012261391E0,7.674015045E0
1.592134030E-1,2.961029053E0,4.997896194E0,7.693168640E0
1.612236640E-1,2.927510023E0,5.002684593E0,7.721899033E0
1.632338720E-1,2.874837637E0,4.997896194E0,7.769783020E0
1.652440800E-1,2.817376852E0,5.026626587E0,7.841609001E0
1.672542890E-1,2.769492865E0,5.026626587E0,7.841609001E0
1.692644970E-1,2.731185675E0,5.021838188E0,7.889492989E0
1.712747050E-1,2.683301449E0,5.064933777E0,7.942165375E0
1.732849140E-1,2.640205860E0,5.074510574E0,8.009202957E0
1.752951220E-1,2.597110271E0,5.040991783E0,7.999626637E0
1.773053300E-1,2.549226284E0,5.045780182E0,8.009202957E0
1.793155390E-1,2.482188702E0,5.045780182E0,8.047510147E0
1.813257470E-1,2.439092875E0,5.074510574E0,8.090605736E0
1.833359550E-1,2.386420488E0,4.926070213E0,8.071452141E0
1.853461640E-1,2.305017710E0,4.954800606E0,8.085817337E0
1.873563720E-1,2.266710520E0,5.079298973E0,8.109759331E0
1.893665800E-1,2.204461098E0,5.031414986E0,8.128912926E0
1.913767890E-1,2.147000313E0,4.916493416E0,8.114547729E0
1.933869970E-1,2.127846718E0,4.849455357E0,8.138489723E0
1.953972050E-1,2.099116325E0,4.787206173E0,8.186373711E0
1.974074140E-1,2.079962730E0,4.739322186E0,8.224681854E0
1.994176220E-1,2.041655540E0,4.686649799E0,8.253412247E0
2.014278300E-1,2.008136749E0,4.657919407E0,8.296507835E0
2.034380390E-1,1.960252643E0,4.648342609E0,8.339603424E0
2.054482470E-1,1.917157054E0,4.638765812E0,8.363545418E0
2.074584550E-1,1.821388960E0,4.643554211E0,8.406641006E0
2.094686640E-1,1.739986062E0,4.638765812E0,8.425794601E0
2.114788720E-1,1.634641171E0,4.672284603E0,8.449736595E0
2.134890800E-1,1.534084797E0,4.672284603E0,8.488043785E0
2.154992890E-1,1.452681899E0,4.705803394E0,8.478466988E0
2.175094970E-1,1.328183413E0,4.710591793E0,8.488043785E0
2.195197050E-1,1.246780515E0,4.720168591E0,8.521562576E0
2.215299140E-1,1.189319730E0,4.686649799E0,8.507197380E0
2.235401220E-1,1.112705231E0,4.696226597E0,8.564658165E0
2.255503820E-1,1.088763237E0,4.672284603E0,8.612542152E0
2.275606430E-1,1.055244446E0,4.667496204E0,8.665214539E0
2.295709030E-1,1.045667648E0,4.624400616E0,8.693944931E0
2.315811640E-1,1.031302333E0,4.581305027E0,8.756194115E0
2.335914240E-1,1.040879130E0,4.538209438E0,8.808866501E0
2.356016850E-1,1.045667648E0,4.509479046E0,8.871115685E0
2.376119450E-1,1.036090732E0,4.452018261E0,8.942941666E0
2.396222050E-1,1.060032845E0,4.404133797E0,9.062651634E0
2.416324660E-1,1.093551636E0,4.365826607E0,9.167996407E0
2.436427260E-1,1.136647224E0,4.327519417E0,9.316437721E0
2.456529870E-1,1.155800819E0,4.270058632E0,9.431359291E0
2.476632470E-1,1.194108129E0,4.226963043E0,9.608530045E0
2.496735070E-1,1.198896527E0,4.217386246E0,9.742605209E0
2.516837680E-1,1.179742932E0,4.164713860E0,9.895833969E0
2.536940280E-1,1.127070427E0,4.131195068E0,1.003948593E1
2.557042890E-1,1.064821243E0,4.135983467E0,1.019750404E1
2.577145490E-1,9.690531492E-1,4.135983467E0,1.038903999E1
2.597248100E-1,8.301894665E-1,4.078522682E0,1.052790356E1
2.617350700E-1,6.530185342E-1,4.064157486E0,1.066676712E1
2.637453300E-1,5.811924338E-1,4.121618271E0,1.075774670E1
2.657555910E-1,5.716156363E-1,4.270058632E0,1.082957268E1
2.677658510E-1,5.141547918E-1,4.361038208E0,1.085830307E1
2.697761120E-1,3.752911091E-1,4.389768600E0,1.085830307E1
2.717863720E-1,2.172738016E-1,4.356249809E0,1.083436108E1
2.737966320E-1,-1.256955881E-2,4.241328239E0,1.084393787E1
2.758068930E-1,-4.100070298E-1,4.030638695E0,1.080563068E1
2.778171530E-1,-7.739257216E-1,3.810372114E0,1.073859310E1
2.798274140E-1,-8.984242082E-1,3.709815502E0,1.073380470E1
2.818376740E-1,-6.542156339E-1,3.867832899E0,1.086787987E1
2.838479350E-1,-2.328361124E-1,4.179079056E0,1.090618706E1
2.858581950E-1,2.094926499E-2,4.370615005E0,1.077211189E1
2.878684550E-1,6.883329898E-2,4.351461411E0,1.051353836E1
2.898787160E-1,2.094926499E-2,4.294000626E0,1.026454163E1
2.918889760E-1,3.531447425E-2,4.203021049E0,1.004906273E1
2.938992370E-1,6.883329898E-2,4.212597847E0,9.910199165E0
2.959094970E-1,1.167173311E-1,4.236539841E0,9.847949982E0
2.979197570E-1,1.789665818E-1,4.222174644E0,9.785700798E0
2.999300180E-1,2.268506140E-1,4.188655853E0,9.689932823E0
3.019402780E-1,2.412158251E-1,4.193444252E0,9.603741646E0
3.039505390E-1,2.986766696E-1,4.203021049E0,9.546280861E0
3.059607990E-1,3.226186931E-1,4.217386246E0,9.440936089E0
3.079710600E-1,3.561375141E-1,4.241328239E0,9.306860924E0
3.099813200E-1,3.561375141E-1,4.250905037E0,9.196727753E0
3.119915800E-1,3.513490856E-1,4.270058632E0,9.110535622E0
3.140018410E-1,3.561375141E-1,4.317942619E0,8.971672058E0
3.160121010E-1,3.178302646E-1,4.327519417E0,8.871115685E0
3.180223620E-1,3.274070919E-1,4.346673012E0,8.780136108E0
3.200326220E-1,2.986766696E-1,4.337096214E0,8.693944931E0
3.220428820E-1,3.226186931E-1,4.341884613E0,8.607753754E0
3.240531430E-1,3.321954906E-1,4.346673012E0,8.593388557E0
3.260634030E-1,3.657143116E-1,4.361038208E0,8.545504570E0
3.280736640E-1,3.657143116E-1,4.375403404E0,8.516774178E0
3.300839240E-1,4.040215313E-1,4.361038208E0,8.454524994E0
3.320941850E-1,4.423287511E-1,4.356249809E0,8.406641006E0
3.341044450E-1,4.279635549E-1,4.356249809E0,8.373122215E0
3.361147050E-1,4.279635549E-1,4.394556999E0,8.344391823E0
3.381249660E-1,4.279635549E-1,4.423287868E0,8.320449829E0
3.401352260E-1,4.279635549E-1,4.452018261E0,8.310873032E0
3.421454870E-1,4.519055784E-1,4.471171856E0,8.291719437E0
3.441557470E-1,4.279635549E-1,4.499902248E0,8.272565842E0
3.461660070E-1,4.375403523E-1,4.547786236E0,8.277354240E0
3.481762680E-1,4.279635549E-1,4.557363033E0,8.262989044E0
3.501865280E-1,4.375403523E-1,4.600458622E0,8.224681854E0
3.521967890E-1,4.471171796E-1,4.633977413E0,8.195950508E0
3.542070490E-1,4.471171796E-1,4.638765812E0,8.157643318E0
3.562173100E-1,4.088099301E-1,4.653131008E0,8.119336128E0
3.582275700E-1,4.375403523E-1,4.705803394E0,8.085817337E0
3.602378300E-1,4.040215313E-1,4.705803394E0,8.071452141E0
3.622480910E-1,4.040215313E-1,4.724956989E0,8.042721748E0
3.642583510E-1,3.992331326E-1,4.768052578E0,8.037933350E0
3.662686120E-1,4.327519536E-1,4.820724964E0,8.047510147E0
3.682788720E-1,4.279635549E-1,4.830301762E0,8.057086945E0
3.702891320E-1,4.231751561E-1,4.863820553E0,8.066663742E0
3.722993930E-1,4.375403523E-1,4.897339344E0,8.061875343E0
3.743060600E-1,4.566939771E-1,4.950012207E0,8.037933350E0
3.763127260E-1,4.040215313E-1,4.964377403E0,8.052298546E0
3.783198100E-1,4.088099301E-1,4.973954201E0,8.061875343E0
3.803274140E-1,4.327519536E-1,5.012261391E0,8.071452141E0
3.823356430E-1,4.519055784E-1,5.026626587E0,8.100182533E0
3.843445490E-1,4.758476019E-1,5.050568581E0,8.138489723E0
3.863541320E-1,4.997895956E-1,5.079298973E0,8.167220116E0
3.883643930E-1,5.572504401E-1,5.088875771E0,8.195950508E0
3.903753300E-1,5.955576897E-1,5.112817764E0,8.239047050E0
3.923868930E-1,6.051344872E-1,5.064933777E0,8.239047050E0
3.943989760E-1,6.386532784E-1,5.093664169E0,8.258200645E0
3.964115280E-1,6.865373254E-1,5.131971359E0,8.282142639E0
3.984243930E-1,7.009025216E-1,5.122394562E0,8.306084633E0
4.004374660E-1,7.583633661E-1,5.141548157E0,8.320449829E0
4.024506430E-1,7.918822169E-1,5.131971359E0,8.334815025E0
4.044638200E-1,8.780734539E-1,5.165490150E0,8.334815025E0
4.064740280E-1,9.498994946E-1,5.203797340E0,8.344391823E0
4.084842370E-1,9.690531492E-1,5.194220543E0,8.320449829E0
4.104944450E-1,9.929951429E-1,5.203797340E0,8.315661430E0
4.125046530E-1,1.036090732E0,5.242104530E0,8.325238228E0
4.145148620E-1,1.055244446E0,5.270834923E0,8.334815025E0
4.165250700E-1,1.098340034E0,5.309142113E0,8.344391823E0
4.185352780E-1,1.088763237E0,5.309142113E0,8.397064209E0
4.205454870E-1,1.098340034E0,5.333084106E0,8.444948196E0
4.225556950E-1,1.103128433E0,5.337872505E0,8.454524994E0
4.245659030E-1,1.107916832E0,5.352237701E0,8.488043785E0
4.265761120E-1,1.107916832E0,5.385756493E0,8.497620583E0
4.285863200E-1,1.093551636E0,5.361814499E0,8.483255386E0
4.305965280E-1,1.026513934E0,5.385756493E0,8.507197380E0
4.326067370E-1,9.929951429E-1,5.390544891E0,8.511985779E0
4.346169450E-1,9.690531492E-1,5.395333767E0,8.535927773E0
4.366271530E-1,9.307458997E-1,5.404910564E0,8.564658165E0
4.386373620E-1,8.828618526E-1,5.380968094E0,8.617330551E0
4.406475700E-1,8.445546627E-1,5.395333767E0,8.646060944E0
4.426577780E-1,7.870938182E-1,5.400122166E0,8.703521729E0
4.446679870E-1,7.583633661E-1,5.390544891E0,8.741828918E0
4.466781950E-1,7.296329737E-1,5.361814499E0,8.789712906E0
4.486884030E-1,6.865373254E-1,5.318718910E0,8.828020096E0
4.506986120E-1,6.578069329E-1,5.294776917E0,8.842385292E0
4.527088200E-1,6.721721292E-1,5.256469727E0,8.866327286E0
4.547190280E-1,6.482301354E-1,5.232527733E0,8.890269279E0
4.567292370E-1,6.530185342E-1,5.213374138E0,8.938153267E0
4.587394450E-1,6.386532784E-1,5.179855347E0,8.957306862E0
4.607496530E-1,6.003460884E-1,5.175066948E0,8.976460457E0
4.627598620E-1,5.668272376E-1,5.136759758E0,9.043498039E0
4.647700700E-1,5.285200477E-1,5.141548157E0,9.062651634E0
4.667802780E-1,4.950011969E-1,5.146336555E0,9.086593628E0
4.687905390E-1,4.662707746E-1,5.151124954E0,9.096170425E0
4.708007990E-1,4.423287511E-1,5.165490150E0,9.134477615E0
4.728110600E-1,4.088099301E-1,5.227739334E0,9.201516151E0
4.748213200E-1,3.896563351E-1,5.246892929E0,9.182361603E0
4.768315800E-1,4.040215313E-1,5.251681328E0,9.196727753E0
4.788418410E-1,3.800795078E-1,5.270834923E0,9.196727753E0
4.808521010E-1,3.992331326E-1,5.280411720E0,9.144054413E0
4.828623620E-1,4.135983288E-1,5.261258125E0,9.077016830E0
4.848726220E-1,3.896563351E-1,5.280411720E0,9.005190849E0
4.868828820E-1,4.040215313E-1,5.266046524E0,8.986037254E0
4.888931430E-1,4.135983288E-1,5.246892929E0,8.928576469E0
4.909034030E-1,4.183867574E-1,5.251681328E0,8.851962090E0
4.929136640E-1,3.896563351E-1,5.275623322E0,8.760982513E0
4.949239240E-1,3.944447339E-1,5.266046524E0,8.693944931E0
4.969341850E-1,4.040215313E-1,5.261258125E0,8.636484146E0
4.989444450E-1,4.471171796E-1,5.294776917E0,8.602965355E0
5.009547050E-1,5.045779943E-1,5.280411720E0,8.497620583E0
5.029649660E-1,5.189431906E-1,5.256469727E0,8.411429405E0
5.049752260E-1,4.902127981E-1,5.256469727E0,8.325238228E0
5.069854870E-1,5.237316489E-1,5.251681328E0,8.243835449E0
5.089957470E-1,5.237316489E-1,5.246892929E0,8.191162109E0
5.110060070E-1,4.806360006E-1,5.261258125E0,8.085817337E0
5.130162680E-1,4.423287511E-1,5.213374138E0,7.990049839E0
5.150265280E-1,3.800795078E-1,5.242104530E0,7.932588577E0
5.170367890E-1,3.321954906E-1,5.199008942E0,7.860762596E0
5.190470490E-1,2.699462473E-1,5.189432144E0,7.827243805E0
5.210573100E-1,2.029085904E-1,5.222950935E0,7.769783020E0
5.230675700E-1,1.885433793E-1,5.222950935E0,7.755417824E0
5.250778300E-1,1.598129570E-1,5.280411720E0,7.808090210E0
5.270880910E-1,1.406593472E-1,5.342660904E0,7.841609001E0
5.290983510E-1,1.406593472E-1,5.380968094E0,7.875127792E0
5.311086120E-1,7.841010392E-2,5.448006153E0,7.884704590E0
5.331188720E-1,3.052607179E-2,5.452794552E0,7.808090210E0
5.351291320E-1,6.584054790E-3,5.481524944E0,7.774571419E0
5.371393930E-1,-2.693476900E-2,5.500678539E0,7.726687431E0
5.391496530E-1,-4.608838260E-2,5.524620533E0,7.664438248E0
5.411599140E-1,-7.960720360E-2,5.538985729E0,7.606977463E0
5.431701740E-1,-1.370680481E-1,5.529408932E0,7.559093475E0
5.451804350E-1,-2.041056901E-1,5.543774128E0,7.554305077E0
5.471906950E-1,-2.328361124E-1,5.582081318E0,7.515997887E0
5.492009550E-1,-2.088941038E-1,5.629965305E0,7.458536625E0
5.512112160E-1,-1.945288926E-1,5.697002888E0,7.401075840E0
5.532214760E-1,-1.753752679E-1,5.725733280E0,7.343615055E0
5.552317370E-1,-1.801636815E-1,5.740098476E0,7.247847080E0
5.572419970E-1,-1.897404790E-1,5.759252071E0,7.142502308E0
5.592522570E-1,-1.801636815E-1,5.749675274E0,7.085041523E0
5.612625180E-1,-1.562216580E-1,5.778405666E0,7.018003941E0
5.632727780E-1,-1.131260321E-1,5.759252071E0,6.965331078E0
5.652830390E-1,-1.035492271E-1,5.706579685E0,6.888716698E0
5.672932990E-1,-1.131260321E-1,5.658695698E0,6.826467514E0
5.693035600E-1,-1.514332592E-1,5.639542103E0,6.778583527E0
5.713138200E-1,-2.041056901E-1,5.615600109E0,6.740276337E0
5.733240800E-1,-2.519897223E-1,5.615600109E0,6.706757545E0
5.753343410E-1,-2.711433470E-1,5.658695698E0,6.678027153E0
5.773446010E-1,-2.998737693E-1,5.716156483E0,6.692392349E0
5.793548620E-1,-3.381809890E-1,5.749675274E0,6.663661957E0
5.813651220E-1,-4.147954583E-1,5.764040470E0,6.706757545E0
5.833753820E-1,-4.004302323E-1,5.797559261E0,6.740276337E0
5.853856430E-1,-4.004302323E-1,5.835866451E0,6.812102318E0
5.873959030E-1,-4.052186310E-1,5.864596844E0,6.869563103E0
5.894061640E-1,-4.147954583E-1,5.902904510E0,6.898293495E0
5.914164240E-1,-3.669114113E-1,5.898116112E0,6.893505096E0
5.934266850E-1,-3.812766075E-1,5.893327713E0,6.903081894E0
5.954369450E-1,-4.004302323E-1,5.826289654E0,6.845621109E0
5.974472050E-1,-4.339490533E-1,5.740098476E0,6.706757545E0
5.994574660E-1,-5.105634928E-1,5.601234913E0,6.567893982E0
6.014677260E-1,-5.728127360E-1,5.529408932E0,6.529586792E0
6.034779870E-1,-6.302735806E-1,5.486313343E0,6.587047577E0
6.054882470E-1,-6.542156339E-1,5.558139324E0,6.639719963E0
6.074985070E-1,-7.308300734E-1,5.620388508E0,6.491279125E0
6.095087680E-1,-7.930793166E-1,5.682637691E0,6.376357555E0
6.115190280E-1,-9.080010056E-1,5.735310078E0,6.352415562E0
6.135292890E-1,-1.008557439E0,5.869385242E0,6.385934353E0
6.155395490E-1,-1.104325533E0,5.984307289E0,6.433818340E0
6.175498100E-1,-1.214458823E0,6.075286865E0,6.414664745E0
6.195600700E-1,-1.334168911E0,6.156689644E0,6.438606739E0
6.215703300E-1,-1.382052898E0,6.228515625E0,6.735487938E0
6.235805910E-1,-1.401206493E0,6.262034416E0,6.955754280E0
6.255908510E-1,-1.367687702E0,6.343437195E0,7.027580738E0
6.276011120E-1,-1.305438519E0,6.381744862E0,6.931812286E0
6.296113720E-1,-1.267131209E0,6.467936039E0,6.792948723E0
6.316216320E-1,-1.118690729E0,6.511031628E0,6.879139900E0
6.336318930E-1,-8.888474107E-1,6.511031628E0,6.903081894E0
6.356421530E-1,-6.781576276E-1,6.453570843E0,6.764218330E0
6.376524140E-1,-5.392939448E-1,6.362590790E0,6.706757545E0
6.396626740E-1,-3.669114113E-1,6.285976410E0,6.836044312E0
6.416729350E-1,-1.514332592E-1,6.185420036E0,6.960542679E0
6.436831950E-1,9.756372124E-2,6.051344872E0,7.137713909E0
6.456934550E-1,3.705027103E-1,5.883750439E0,7.343615055E0
6.477037160E-1,4.806360006E-1,5.744886875E0,7.300519466E0
6.497139760E-1,4.519055784E-1,5.673060894E0,7.089829922E0
6.517242370E-1,4.519055784E-1,5.629965305E0,7.051522732E0
6.537344970E-1,4.997895956E-1,5.582081318E0,7.156867504E0
6.557447570E-1,5.476736426E-1,5.562927723E0,7.118560314E0
6.577550180E-1,5.620388389E-1,5.548562527E0,7.214328289E0
6.597652780E-1,5.955576897E-1,5.510255337E0,7.487267494E0
6.617755390E-1,6.338648796E-1,5.510255337E0,7.755417824E0
6.637857990E-1,6.817489266E-1,5.462371349E0,7.994838238E0
6.657960600E-1,7.152677774E-1,5.395333767E0,8.224681854E0
6.678063200E-1,7.679402232E-1,5.333084106E0,8.464101791E0
6.698165800E-1,8.110358119E-1,5.251681328E0,8.703521729E0
6.718268410E-1,8.684966564E-1,5.175066948E0,8.914211273E0
6.738371010E-1,9.259575009E-1,5.064933777E0,9.120112419E0
6.758473620E-1,9.738415480E-1,4.983530998E0,9.239823341E0
6.778576220E-1,9.834183455E-1,4.878185749E0,9.268553734E0
6.798678820E-1,9.738415480E-1,4.748898983E0,9.196727753E0
6.818781430E-1,8.876502514E-1,4.571728230E0,8.942941666E0
6.838884030E-1,8.732850552E-1,4.724956989E0,8.674791336E0
6.858986640E-1,8.206126094E-1,4.964377403E0,8.607753754E0
6.879089240E-1,6.769605279E-1,5.117606163E0,8.598176956E0
6.899191850E-1,4.854243994E-1,5.337872505E0,8.579023361E0
6.919294450E-1,2.843114436E-1,5.606023312E0,8.569446564E0
6.939397050E-1,4.967968538E-2,5.864596844E0,8.674791336E0
6.959499660E-1,-1.897404790E-1,6.089652061E0,8.789712906E0
6.979602260E-1,-3.956418335E-1,6.242880821E0,8.880692482E0
6.999704870E-1,-5.776011348E-1,6.343437195E0,8.986037254E0
7.019807470E-1,-7.116764784E-1,6.463147640E0,9.048286438E0
7.039910070E-1,-8.505401611E-1,6.573280811E0,9.081805229E0
7.060012680E-1,-9.319429994E-1,6.592434406E0,9.115324020E0
7.080115280E-1,-9.654618502E-1,6.554127216E0,9.129689217E0
7.100217890E-1,-8.840589523E-1,6.391321659E0,9.110535622E0
7.120320490E-1,-8.361749649E-1,6.338648796E0,9.129689217E0
7.140422570E-1,-7.643488646E-1,6.257246017E0,9.077016830E0
7.160524660E-1,-5.967547894E-1,6.147112846E0,9.057863235E0
7.180626740E-1,-3.764882088E-1,6.022614479E0,8.986037254E0
7.200728820E-1,-1.514332592E-1,5.869385242E0,8.923788071E0
7.220830910E-1,4.967968538E-2,5.730521679E0,8.808866501E0
7.240932990E-1,2.603694201E-1,5.586869717E0,8.760982513E0
7.261035070E-1,4.519055784E-1,5.424064159E0,8.684368134E0
7.281137160E-1,6.338648796E-1,5.285200119E0,8.684368134E0
7.301239240E-1,7.870938182E-1,5.146336555E0,8.602965355E0
7.321341320E-1,9.211691022E-1,5.074510574E0,8.602965355E0
7.341443410E-1,1.007360339E0,4.997896194E0,8.593388557E0
7.361545490E-1,1.074398041E0,4.926070213E0,8.602965355E0
7.381647570E-1,1.079186440E0,4.873397350E0,8.607753754E0
7.401749660E-1,1.069609642E0,4.897339344E0,8.612542152E0
7.421851740E-1,1.026513934E0,4.916493416E0,8.636484146E0
7.441953820E-1,9.451110959E-1,4.983530998E0,8.617330551E0
7.462055910E-1,8.349778652E-1,5.074510574E0,8.579023361E0
7.482157990E-1,7.296329737E-1,5.175066948E0,8.526350975E0
7.502260070E-1,5.955576897E-1,5.313930511E0,8.502408981E0
7.522362160E-1,4.662707746E-1,5.433640957E0,8.464101791E0
7.542464240E-1,3.369838893E-1,5.553350925E0,8.468890190E0
7.562566320E-1,2.364274114E-1,5.668272495E0,8.459313393E0
7.582668410E-1,9.756372124E-2,5.730521679E0,8.425794601E0
7.602770490E-1,1.795651275E-3,5.807136059E0,8.392275810E0
7.622872570E-1,-9.397241473E-2,5.840654850E0,8.382699013E0
7.642974660E-1,-1.657984704E-1,5.855020046E0,8.363545418E0
7.663076740E-1,-1.993172914E-1,5.845443249E0,8.358757019E0
7.683178820E-1,-2.280477136E-1,5.831078053E0,8.310873032E0
7.703280910E-1,-2.998737693E-1,5.821501255E0,8.262989044E0
7.723382990E-1,-3.190273643E-1,5.807136059E0,8.200738907E0
7.743485600E-1,-3.333925903E-1,5.720944881E0,8.162431717E0
7.763588200E-1,-3.333925903E-1,5.653907299E0,8.138489723E0
7.783690800E-1,-3.525462151E-1,5.620388508E0,8.095394135E0
7.803793410E-1,-3.716998100E-1,5.639542103E0,8.047510147E0
7.823896010E-1,-3.477577865E-1,5.673060894E0,8.018779755E0
7.843998620E-1,-4.339490533E-1,5.706579685E0,7.937376976E0
7.864101220E-1,-3.812766075E-1,5.730521679E0,7.918223381E0
7.884203820E-1,-3.046621680E-1,5.687426090E0,7.956530571E0
7.904306430E-1,-2.184709013E-1,5.677849293E0,7.918223381E0
7.924409030E-1,-1.753752679E-1,5.629965305E0,7.870339394E0
7.944511640E-1,-1.227028370E-1,5.567716122E0,7.855974197E0
7.964614240E-1,-8.918401599E-2,5.538985729E0,7.827243805E0
7.984716850E-1,-1.035492271E-1,5.491101742E0,7.717110634E0
8.004819450E-1,-1.274912357E-1,5.500678539E0,7.683591843E0
8.024922050E-1,-1.274912357E-1,5.471948147E0,7.645284653E0
8.045024660E-1,-1.083376259E-1,5.471948147E0,7.654861450E0
8.065127260E-1,-1.131260321E-1,5.510255337E0,7.645284653E0
8.085229870E-1,-1.562216580E-1,5.505466938E0,7.645284653E0
8.105332470E-1,-1.514332592E-1,5.529408932E0,7.630919456E0
8.125435070E-1,-1.897404790E-1,5.548562527E0,7.597400665E0
8.145537680E-1,-2.232593149E-1,5.562927723E0,7.573458672E0
8.165640280E-1,-2.376245260E-1,5.529408932E0,7.592612267E0
8.185742890E-1,-2.376245260E-1,5.519832134E0,7.621342659E0
8.205845490E-1,-2.184709013E-1,5.495890141E0,7.621342659E0
8.225948100E-1,-1.993172914E-1,5.481524944E0,7.621342659E0
8.246050700E-1,-1.897404790E-1,5.486313343E0,7.621342659E0
8.266153300E-1,-1.562216580E-1,5.481524944E0,7.654861450E0
8.286255910E-1,-1.227028370E-1,5.433640957E0,7.717110634E0
8.306358510E-1,-5.566519126E-2,5.409698963E0,7.697957039E0
8.326461120E-1,-1.256955881E-2,5.376179695E0,7.693168640E0
8.346563720E-1,3.531447425E-2,5.328295708E0,7.745841026E0
8.366666320E-1,6.883329898E-2,5.299565315E0,7.760206223E0
8.386768930E-1,1.454477459E-1,5.275623322E0,7.808090210E0
8.406871530E-1,1.981201917E-1,5.232527733E0,7.827243805E0
8.426974140E-1,2.507926226E-1,5.194220543E0,7.879916191E0
8.447076740E-1,3.321954906E-1,5.155913353E0,7.894281387E0
8.467179350E-1,3.896563351E-1,5.117606163E0,7.956530571E0
8.487281950E-1,4.327519536E-1,5.103240967E0,7.990049839E0
8.507384550E-1,4.710591733E-1,5.050568581E0,8.095394135E0
8.527487160E-1,5.045779943E-1,4.993107796E0,8.148066521E0
8.547589760E-1,5.237316489E-1,4.950012207E0,8.186373711E0
8.567692370E-1,5.476736426E-1,4.926070213E0,8.234258652E0
8.587794970E-1,5.620388389E-1,4.897339344E0,8.301296234E0
8.607897570E-1,5.524620414E-1,4.878185749E0,8.349180222E0
8.628000180E-1,5.428852439E-1,4.892550945E0,8.363545418E0
8.648102780E-1,5.380968451E-1,4.945223808E0,8.330026627E0
8.668205390E-1,4.806360006E-1,5.064933777E0,8.344391823E0
8.688307990E-1,4.040215313E-1,5.194220543E0,8.368333817E0
8.708410600E-1,3.465606868E-1,5.328295708E0,8.416217804E0
8.728513200E-1,2.795230448E-1,5.467159748E0,8.497620583E0
8.748615800E-1,1.693897694E-1,5.601234913E0,8.535927773E0
8.768718410E-1,1.550245583E-1,5.701791286E0,8.626907349E0
8.788821010E-1,1.598129570E-1,5.783194065E0,8.713098526E0
8.808923620E-1,1.550245583E-1,5.831078053E0,8.789712906E0
8.829026220E-1,1.837549806E-1,5.845443249E0,8.828020096E0
8.849128820E-1,2.220622003E-1,5.807136059E0,8.866327286E0
8.869231430E-1,2.507926226E-1,5.773617268E0,8.871115685E0
8.889334030E-1,2.843114436E-1,5.677849293E0,8.875904083E0
8.909436640E-1,3.082534671E-1,5.596446514E0,8.880692482E0
8.929539240E-1,3.465606868E-1,5.505466938E0,8.895057678E0
8.949641850E-1,3.848679364E-1,5.409698963E0,8.895057678E0
8.969744450E-1,3.944447339E-1,5.352237701E0,8.890269279E0
8.989847050E-1,4.183867574E-1,5.309142113E0,8.904634476E0
9.009949660E-1,3.848679364E-1,5.323507309E0,8.861538887E0
9.030052260E-1,2.651578486E-1,5.457582951E0,8.693944931E0
9.050154870E-1,9.756372124E-2,5.629965305E0,8.660426140E0
9.070257470E-1,2.094926499E-2,5.701791286E0,8.760982513E0
9.090360070E-1,1.795651275E-3,5.740098476E0,8.832808495E0
9.110462680E-1,-2.992752008E-3,5.768828869E0,8.832808495E0
9.130565280E-1,-1.735796221E-2,5.768828869E0,8.813654900E0
9.150667890E-1,-1.735796221E-2,5.677849293E0,8.866327286E0
9.170770490E-1,2.094926499E-2,5.606023312E0,8.741828918E0
9.190873100E-1,6.404489279E-2,5.538985729E0,8.679579735E0
9.210975700E-1,1.310825497E-1,5.471948147E0,8.684368134E0
9.231078300E-1,1.885433793E-1,5.471948147E0,8.555081367E0
9.251180910E-1,2.172738016E-1,5.457582951E0,8.392275810E0
9.271283510E-1,2.172738016E-1,5.462371349E0,8.272565842E0
9.291386120E-1,2.076970041E-1,5.452794552E0,8.138489723E0
9.311488720E-1,1.310825497E-1,5.443217754E0,7.894281387E0
9.331591320E-1,-5.087678507E-2,5.448006153E0,7.745841026E0
9.351693930E-1,-3.172317147E-2,5.486313343E0,7.760206223E0
9.371796530E-1,4.489128292E-2,5.452794552E0,7.635707855E0
9.391899140E-1,4.010287672E-2,5.448006153E0,7.626131058E0
9.412001740E-1,4.489128292E-2,5.404910564E0,7.578247070E0
9.432104350E-1,1.071405262E-1,5.357026100E0,7.544728279E0
9.452206950E-1,1.262941360E-1,5.280411720E0,7.549516678E0
9.472309550E-1,2.268506140E-1,5.203797340E0,7.602189064E0
9.492412160E-1,2.986766696E-1,5.112817764E0,7.664438248E0
9.512514760E-1,3.609259129E-1,5.007472992E0,7.769783020E0
9.532617370E-1,3.848679364E-1,4.887762547E0,7.841609001E0
9.552719970E-1,4.566939771E-1,4.787206173E0,7.879916191E0
9.572822570E-1,5.285200477E-1,4.710591793E0,7.970896244E0
9.592925180E-1,6.003460884E-1,4.633977413E0,8.066663742E0
9.613027780E-1,7.104793787E-1,4.581305027E0,8.181585312E0
9.633130390E-1,8.158242106E-1,4.504690647E0,8.272565842E0
9.653232990E-1,9.307458997E-1,4.447229862E0,8.310873032E0
9.673335600E-1,9.882067442E-1,4.337096214E0,8.368333817E0
9.693438200E-1,1.016937137E0,4.231751442E0,8.291719437E0
9.713540800E-1,1.002571940E0,4.174290657E0,8.215105057E0
9.733643410E-1,9.546879530E-1,4.188655853E0,8.114547729E0
9.753746010E-1,9.068039060E-1,4.317942619E0,8.009202957E0
9.773848620E-1,7.679402232E-1,4.509479046E0,7.994838238E0
9.793951220E-1,6.147112846E-1,4.758475780E0,8.004414558E0
9.814053820E-1,3.944447339E-1,5.021838188E0,8.081028938E0
9.834156430E-1,1.406593472E-1,5.304353714E0,8.152854919E0
9.854259030E-1,-1.562216580E-1,5.562927723E0,8.191162109E0
9.874361640E-1,-4.914098978E-1,5.768828869E0,8.234258652E0
9.894464240E-1,-7.691373229E-1,5.979518890E0,8.291719437E0
9.914566850E-1,-8.936358094E-1,6.127959251E0,8.344391823E0
9.934669450E-1,-9.654618502E-1,6.223727226E0,8.397064209E0
9.954772050E-1,-9.223662019E-1,6.262034416E0,8.401852608E0
9.974874660E-1,-8.313865662E-1,6.242880821E0,8.387487411E0
9.994977260E-1,-6.877344251E-1,6.171054840E0,8.353968620E0
1.001507987E0,-4.818331003E-1,6.051344872E0,8.310873032E0
1.003518247E0,-2.663549483E-1,5.907692909E0,8.262989044E0
1.005528507E0,-1.035492271E-1,5.778405666E0,8.186373711E0
1.007538768E0,1.795651275E-3,5.620388508E0,8.148066521E0
1.009549028E0,9.756372124E-2,5.495890141E0,8.128912926E0
1.011559289E0,1.023521200E-1,5.361814499E0,8.138489723E0
1.013569549E0,1.119289324E-1,5.266046524E0,8.186373711E0
1.015579810E0,6.404489279E-2,5.194220543E0,8.248623848E0
1.017590070E0,6.584054790E-3,5.208585739E0,8.277354240E0
1.019600330E0,-7.481880486E-2,5.227739334E0,8.301296234E0
1.021610591E0,-1.274912357E-1,5.304353714E0,8.325238228E0
1.023620851E0,-9.876082093E-2,5.476736546E0,8.320449829E0
1.025631112E0,-1.274912357E-1,5.443217754E0,8.334815025E0
1.027641372E0,-1.945288926E-1,5.409698963E0,8.229470253E0
1.029651632E0,-1.849520802E-1,5.376179695E0,8.138489723E0
1.031661893E0,-1.657984704E-1,5.299565315E0,8.052298546E0
1.033672153E0,-1.322796494E-1,5.242104530E0,7.994838238E0
1.035682414E0,-4.608838260E-2,5.222950935E0,7.970896244E0
1.037692674E0,-2.992752008E-3,5.155913353E0,8.013991356E0
1.039702935E0,6.883329898E-2,5.122394562E0,8.023568153E0
1.041713195E0,4.967968538E-2,5.117606163E0,8.018779755E0
1.043723455E0,2.573766746E-2,5.112817764E0,7.999626637E0
1.045733716E0,-2.214636654E-2,5.136759758E0,7.975684643E0
1.047743976E0,-6.524199992E-2,5.203797340E0,8.004414558E0
1.049754185E0,-9.876082093E-2,5.285200119E0,8.081028938E0
1.051764393E0,-1.514332592E-1,5.352237701E0,8.104970932E0
1.053774601E0,-2.184709013E-1,5.443217754E0,8.128912926E0
1.055784810E0,-2.136825025E-1,5.495890141E0,8.215105057E0
1.057795018E0,-2.280477136E-1,5.519832134E0,8.320449829E0
1.059805226E0,-1.993172914E-1,5.529408932E0,8.363545418E0
1.061815435E0,-1.753752679E-1,5.495890141E0,8.387487411E0
1.063825643E0,-1.705868691E-1,5.481524944E0,8.392275810E0
1.065835851E0,-1.562216580E-1,5.443217754E0,8.382699013E0
1.067846060E0,-1.562216580E-1,5.424064159E0,8.368333817E0
1.069856268E0,-1.849520802E-1,5.404910564E0,8.377910614E0
1.071866476E0,-2.184709013E-1,5.409698963E0,8.387487411E0
1.073876685E0,-2.472013235E-1,5.409698963E0,8.392275810E0
1.075886893E0,-2.855085433E-1,5.433640957E0,8.387487411E0
1.077897101E0,-3.525462151E-1,5.443217754E0,8.373122215E0
1.079907310E0,-4.052186310E-1,5.443217754E0,8.363545418E0
1.081917518E0,-4.770447016E-1,5.433640957E0,8.349180222E0
1.083927726E0,-5.201402903E-1,5.433640957E0,8.291719437E0
1.085937935E0,-5.105634928E-1,5.414487362E0,8.272565842E0
1.087948143E0,-5.584475398E-1,5.395333767E0,8.253412247E0
1.089958351E0,-5.057750940E-1,5.361814499E0,8.262989044E0
1.091968560E0,-4.818331003E-1,5.309142113E0,8.306084633E0
1.093978768E0,-4.147954583E-1,5.280411720E0,8.435371399E0
1.095988976E0,-3.238157928E-1,5.203797340E0,8.617330551E0
1.097999185E0,-2.376245260E-1,5.098452568E0,8.832808495E0
1.100009393E0,-6.045359373E-2,4.887762547E0,9.100958824E0
1.102019601E0,3.561375141E-1,4.619612217E0,9.407417297E0
1.104029810E0,7.775170207E-1,4.571728230E0,9.531915665E0
1.106040018E0,7.487865686E-1,4.796782970E0,9.268553734E0
1.108050278E0,5.620388389E-1,5.079298973E0,8.971672058E0
1.110060539E0,4.710591733E-1,5.323507309E0,8.813654900E0
1.112070799E0,3.417722881E-1,5.500678539E0,8.784924507E0
1.114081060E0,1.358709484E-1,5.610811710E0,8.832808495E0
1.116091320E0,-7.481880486E-2,5.716156483E0,8.962095261E0
1.118101580E0,-3.333925903E-1,5.725733280E0,9.062651634E0
1.120111841E0,-5.249287486E-1,5.716156483E0,9.139266014E0
1.122122101E0,-6.494272351E-1,5.663484097E0,9.220669746E0
1.124129132E0,-7.068880796E-1,5.572504520E0,9.278130531E0
1.126136164E0,-6.829460263E-1,5.471948147E0,9.287707329E0
1.128143612E0,-6.446388364E-1,5.371391296E0,9.225458145E0
1.130151580E0,-4.722562730E-1,5.285200119E0,9.215881348E0
1.132160122E0,-3.525462151E-1,5.170278549E0,9.110535622E0
1.134169289E0,-2.041056901E-1,5.093664169E0,9.057863235E0
1.136179080E0,-5.087678507E-2,5.045780182E0,9.086593628E0
1.138189497E0,3.531447425E-2,5.012261391E0,9.153631210E0
1.140200539E0,1.215057373E-1,4.978742599E0,9.215881348E0
1.142212101E0,1.598129570E-1,4.945223808E0,9.215881348E0
1.144224132E0,2.316390127E-1,4.882974148E0,9.220669746E0
1.146236528E0,2.699462473E-1,4.820724964E0,9.172784805E0
1.148249185E0,4.662707746E-1,4.705803394E0,9.206304550E0
1.150261997E0,-9.876082093E-2,4.959589005E0,8.938153267E0
1.152274862E0,1.502361596E-1,4.926070213E0,8.957306862E0
1.154287310E0,1.502361596E-1,4.964377403E0,8.990825653E0
1.156297570E0,2.573766746E-2,5.040991783E0,8.990825653E0
1.158307830E0,-5.087678507E-2,5.108029366E0,8.933364868E0
1.160318091E0,-1.322796494E-1,5.151124954E0,8.847173691E0
1.162328351E0,-2.136825025E-1,5.199008942E0,8.765770912E0
1.164338612E0,-2.472013235E-1,5.194220543E0,8.713098526E0
1.166348820E0,-2.711433470E-1,5.179855347E0,8.693944931E0
1.168359028E0,-3.094505668E-1,5.141548157E0,8.626907349E0
1.170369237E0,-3.190273643E-1,5.079298973E0,8.545504570E0
1.172379445E0,-3.429693878E-1,5.031414986E0,8.425794601E0
1.174389653E0,-3.669114113E-1,5.007472992E0,8.320449829E0
1.176399862E0,-9.397241473E-2,4.916493416E0,8.377910614E0
1.178410070E0,1.167173311E-1,4.882974148E0,8.344391823E0
1.180420278E0,3.274070919E-1,4.811148167E0,8.349180222E0
1.182430487E0,5.237316489E-1,4.748898983E0,8.373122215E0
1.184440695E0,6.817489266E-1,4.748898983E0,8.363545418E0
1.186450903E0,7.679402232E-1,4.715380192E0,8.310873032E0
1.188461112E0,8.062474132E-1,4.701014996E0,8.267777443E0
1.190471320E0,7.535749674E-1,4.657919407E0,8.200738907E0
1.192481528E0,6.338648796E-1,4.614823818E0,8.124124527E0
1.194491737E0,5.141547918E-1,4.542997837E0,8.018779755E0
1.196501945E0,4.950011969E-1,4.480748653E0,8.004414558E0
1.198512153E0,4.662707746E-1,4.413711071E0,8.004414558E0
1.200522362E0,4.854243994E-1,4.437653065E0,7.994838238E0
1.202532570E0,4.566939771E-1,4.514267445E0,8.018779755E0
1.204542778E0,4.231751561E-1,4.633977413E0,8.081028938E0
1.206552987E0,3.513490856E-1,4.748898983E0,8.181585312E0
1.208563195E0,2.843114436E-1,4.868608952E0,8.291719437E0
1.210573403E0,2.316390127E-1,4.930858612E0,8.368333817E0
1.212583612E0,1.550245583E-1,4.997896194E0,8.377910614E0
1.214593820E0,1.454477459E-1,5.026626587E0,8.435371399E0
1.216604028E0,1.502361596E-1,5.050568581E0,8.435371399E0
1.218614237E0,1.933317930E-1,5.079298973E0,8.464101791E0
1.220624445E0,2.172738016E-1,5.093664169E0,8.454524994E0
1.222634653E0,2.651578486E-1,5.088875771E0,8.473678589E0
1.224644914E0,2.890998423E-1,5.064933777E0,8.516774178E0
1.226655174E0,3.513490856E-1,5.036203384E0,8.545504570E0
1.228665435E0,4.088099301E-1,5.017049789E0,8.579023361E0
1.230675695E0,4.854243994E-1,5.012261391E0,8.602965355E0
1.232685955E0,5.716156363E-1,5.007472992E0,8.631695747E0
1.234696216E0,6.434416771E-1,4.954800606E0,8.626907349E0
1.236706476E0,7.535749674E-1,4.916493416E0,8.641272545E0
1.238716737E0,8.732850552E-1,4.854243755E0,8.631695747E0
1.240726997E0,9.834183455E-1,4.835090160E0,8.583811760E0
1.242737257E0,1.012148738E0,4.811148167E0,8.521562576E0
1.244747518E0,1.074398041E0,4.791994572E0,8.464101791E0
1.246757778E0,1.122282028E0,4.777629375E0,8.454524994E0
1.248768039E0,1.151012421E0,4.753687382E0,8.416217804E0
1.250778299E0,1.194108129E0,4.753687382E0,8.406641006E0
1.252788560E0,1.246780515E0,4.724956989E0,8.382699013E0
1.254798820E0,1.265934110E0,4.739322186E0,8.353968620E0
1.256809080E0,1.265934110E0,4.772840977E0,8.301296234E0
1.258819341E0,1.261145711E0,4.830301762E0,8.262989044E0
1.260829601E0,1.198896527E0,4.911705017E0,8.219893456E0
1.262839862E0,1.141435623E0,4.983530998E0,8.205527306E0
1.264850122E0,1.055244446E0,5.050568581E0,8.181585312E0
1.266860382E0,9.738415480E-1,5.127182961E0,8.210315704E0
1.268870643E0,9.068039060E-1,5.184643745E0,8.239047050E0
1.270880903E0,8.684966564E-1,5.199008942E0,8.239047050E0
1.272891164E0,8.062474132E-1,5.213374138E0,8.229470253E0
1.274901424E0,7.727286220E-1,5.237316132E0,8.210315704E0
1.276911685E0,7.056909800E-1,5.266046524E0,8.195950508E0
1.278921945E0,6.673837304E-1,5.270834923E0,8.191162109E0
1.280932205E0,6.290764809E-1,5.294776917E0,8.200738907E0
1.282942466E0,6.099228859E-1,5.304353714E0,8.234258652E0
1.284952726E0,6.147112846E-1,5.304353714E0,8.286931038E0
1.286962987E0,6.003460884E-1,5.289988518E0,8.344391823E0
1.288973247E0,6.147112846E-1,5.270834923E0,8.425794601E0
1.290983507E0,6.242880821E-1,5.256469727E0,8.454524994E0
1.292993768E0,6.051344872E-1,5.242104530E0,8.497620583E0
1.295004028E0,5.811924338E-1,5.237316132E0,8.564658165E0
1.297014289E0,5.572504401E-1,5.242104530E0,8.602965355E0
1.299024549E0,5.141547918E-1,5.270834923E0,8.636484146E0
1.301034810E0,4.662707746E-1,5.304353714E0,8.713098526E0
1.303045070E0,3.944447339E-1,5.328295708E0,8.780136108E0
1.305055330E0,3.274070919E-1,5.333084106E0,8.818443298E0
1.307065591E0,2.699462473E-1,5.337872505E0,8.837596893E0
1.309075851E0,6.584054790E-3,5.409698963E0,8.851962090E0
1.311086112E0,1.933317930E-1,5.376179695E0,9.005190849E0
1.313096372E0,3.848679364E-1,5.175066948E0,8.942941666E0
1.315106632E0,1.598129570E-1,5.270834923E0,8.899846077E0
1.317116893E0,1.262941360E-1,5.256469727E0,8.837596893E0
1.319127153E0,1.406593472E-1,5.208585739E0,8.765770912E0
1.321137414E0,1.550245583E-1,5.179855347E0,8.756194115E0
1.323147674E0,1.550245583E-1,5.141548157E0,8.760982513E0
1.325157935E0,1.502361596E-1,5.117606163E0,8.717886925E0
1.327168195E0,1.406593472E-1,5.084087372E0,8.655637741E0
1.329178455E0,1.502361596E-1,5.060145378E0,8.593388557E0
1.331188716E0,1.358709484E-1,5.064933777E0,8.492832184E0
1.333198976E0,1.550245583E-1,5.060145378E0,8.387487411E0
1.335209237E0,1.358709484E-1,5.069722176E0,8.344391823E0
1.337219497E0,1.262941360E-1,5.079298973E0,8.267777443E0
1.339229757E0,1.023521200E-1,5.064933777E0,8.224681854E0
1.341240018E0,8.319851011E-2,5.093664169E0,8.200738907E0
1.343250278E0,3.052607179E-2,5.098452568E0,8.152854919E0
1.345260539E0,-1.735796221E-2,5.131971359E0,8.148066521E0
1.347270799E0,-7.481880486E-2,5.155913353E0,8.143278122E0
1.349281060E0,-1.274912357E-1,5.175066948E0,8.128912926E0
1.351291320E0,-1.705868691E-1,5.242104530E0,8.124124527E0
1.353301580E0,-1.753752679E-1,5.261258125E0,8.128912926E0
1.355311841E0,-2.184709013E-1,5.294776917E0,8.152854919E0
1.357322101E0,-2.184709013E-1,5.318718910E0,8.186373711E0
1.359332362E0,-2.136825025E-1,5.328295708E0,8.219893456E0
1.361342622E0,-2.041056901E-1,5.309142113E0,8.243835449E0
1.363352882E0,-2.184709013E-1,5.299565315E0,8.267777443E0
1.365363143E0,-2.136825025E-1,5.275623322E0,8.282142639E0
1.367373403E0,-2.328361124E-1,5.294776917E0,8.301296234E0
1.369383664E0,-2.519897223E-1,5.294776917E0,8.296507835E0
1.371393924E0,-2.855085433E-1,5.313930511E0,8.258200645E0
1.373404185E0,-2.998737693E-1,5.309142113E0,8.272565842E0
1.375414445E0,-3.333925903E-1,5.309142113E0,8.262989044E0
1.377424705E0,-4.147954583E-1,5.347449303E0,8.234258652E0
1.379434966E0,-5.009866953E-1,5.352237701E0,8.195950508E0
1.381445226E0,-5.105634928E-1,5.333084106E0,8.167220116E0
1.383455487E0,-5.823895931E-1,5.361814499E0,8.148066521E0
1.385465747E0,-6.254851818E-1,5.385756493E0,8.143278122E0
1.387476007E0,-6.733692288E-1,5.385756493E0,8.114547729E0
1.389486268E0,-7.164648771E-1,5.395333767E0,8.128912926E0
1.391496528E0,-7.451952696E-1,5.419275761E0,8.128912926E0
1.393506789E0,-7.308300734E-1,5.428852558E0,8.124124527E0
1.395517049E0,-7.547720671E-1,5.414487362E0,8.109759331E0
1.397527310E0,-7.595604658E-1,5.385756493E0,8.114547729E0
1.399537570E0,-7.404068708E-1,5.380968094E0,8.114547729E0
1.401547830E0,-7.356184721E-1,5.361814499E0,8.133701324E0
1.403558091E0,-7.308300734E-1,5.352237701E0,8.114547729E0
1.405568351E0,-7.068880796E-1,5.313930511E0,8.114547729E0
1.407578612E0,-7.068880796E-1,5.309142113E0,8.090605736E0
1.409588872E0,-6.733692288E-1,5.294776917E0,8.104970932E0
1.411599132E0,-6.494272351E-1,5.280411720E0,8.109759331E0
1.413609393E0,-6.015431881E-1,5.222950935E0,8.124124527E0
1.415619653E0,-5.919663906E-1,5.203797340E0,8.167220116E0
1.417629914E0,-5.488707423E-1,5.175066948E0,8.181585312E0
1.419640174E0,-5.153518915E-1,5.131971359E0,8.200738907E0
1.421650435E0,-4.722562730E-1,5.108029366E0,8.234258652E0
1.423660695E0,-4.339490533E-1,5.098452568E0,8.253412247E0
1.425670955E0,-4.052186310E-1,5.084087372E0,8.262989044E0
1.427681216E0,-4.243722558E-1,5.079298973E0,8.291719437E0
1.429691476E0,-3.908534348E-1,5.064933777E0,8.296507835E0
1.431701737E0,-3.908534348E-1,5.069722176E0,8.349180222E0
1.433711997E0,-3.860650361E-1,5.060145378E0,8.349180222E0
1.435722257E0,-3.764882088E-1,5.088875771E0,8.353968620E0
1.437732518E0,-4.100070298E-1,5.093664169E0,8.377910614E0
1.439742778E0,-4.291606545E-1,5.108029366E0,8.368333817E0
1.441753039E0,-4.339490533E-1,5.122394562E0,8.382699013E0
1.443763299E0,-4.483142793E-1,5.131971359E0,8.382699013E0
1.445773560E0,-4.674678743E-1,5.141548157E0,8.406641006E0
1.447783820E0,-4.722562730E-1,5.141548157E0,8.468890190E0
1.449794080E0,-4.818331003E-1,5.160701752E0,8.459313393E0
1.451804341E0,-5.009866953E-1,5.170278549E0,8.531139374E0
1.453814601E0,-4.770447016E-1,5.170278549E0,8.569446564E0
1.455824862E0,-4.435258508E-1,5.170278549E0,8.598176956E0
1.457835122E0,-4.195838571E-1,5.170278549E0,8.641272545E0
1.459845382E0,-3.812766075E-1,5.179855347E0,8.655637741E0
1.461855643E0,-3.669114113E-1,5.170278549E0,8.684368134E0
1.463865903E0,-3.286041915E-1,5.155913353E0,8.674791336E0
1.465876164E0,-2.950853705E-1,5.160701752E0,8.693944931E0
1.467886424E0,-2.759317458E-1,5.165490150E0,8.684368134E0
1.469896685E0,-2.184709013E-1,5.160701752E0,8.703521729E0
1.471906945E0,-1.945288926E-1,5.160701752E0,8.727463722E0
1.473917205E0,-1.418564469E-1,5.165490150E0,8.727463722E0
1.475927466E0,-1.322796494E-1,5.160701752E0,8.737040520E0
1.477937726E0,-6.524199992E-2,5.160701752E0,8.708310127E0
1.479947987E0,2.573766746E-2,5.170278549E0,8.722675323E0
1.481958247E0,2.094926499E-2,5.208585739E0,8.717886925E0
1.483968507E0,-3.651157767E-2,5.242104530E0,8.698733330E0
1.485978768E0,-6.045359373E-2,5.251681328E0,8.684368134E0
1.487989028E0,-7.003039867E-2,5.266046524E0,8.636484146E0
1.489999289E0,-9.397241473E-2,5.275623322E0,8.574234962E0
1.492009549E0,-9.397241473E-2,5.266046524E0,8.593388557E0
1.494019810E0,-9.876082093E-2,5.304353714E0,8.588600159E0
1.496030070E0,-7.960720360E-2,5.318718910E0,8.612542152E0
1.498040330E0,-4.129998013E-2,5.323507309E0,8.612542152E0
1.500050591E0,-1.256955881E-2,5.361814499E0,8.626907349E0
1.502060851E0,1.137245819E-2,5.390544891E0,8.602965355E0
1.504071112E0,1.616086066E-2,5.390544891E0,8.559869766E0
1.506081372E0,3.531447425E-2,5.400122166E0,8.550292969E0
1.508091632E0,2.573766746E-2,5.414487362E0,8.531139374E0
1.510101893E0,3.052607179E-2,5.443217754E0,8.507197380E0
1.512112153E0,4.010287672E-2,5.433640957E0,8.483255386E0
1.514122414E0,4.489128292E-2,5.452794552E0,8.483255386E0
1.516132674E0,5.446808785E-2,5.448006153E0,8.468890190E0
1.518142935E0,3.531447425E-2,5.443217754E0,8.435371399E0
1.520153195E0,3.531447425E-2,5.428852558E0,8.401852608E0
1.522163455E0,2.094926499E-2,5.448006153E0,8.358757019E0
1.524173716E0,2.573766746E-2,5.443217754E0,8.310873032E0
1.526183976E0,2.094926499E-2,5.457582951E0,8.277354240E0
1.528194237E0,1.616086066E-2,5.462371349E0,8.229470253E0
1.530204497E0,3.052607179E-2,5.476736546E0,8.181585312E0
1.532214757E0,3.531447425E-2,5.481524944E0,8.148066521E0
1.534225018E0,5.925649032E-2,5.500678539E0,8.095394135E0
1.536235278E0,6.404489279E-2,5.519832134E0,8.066663742E0
1.538245539E0,6.883329898E-2,5.515043736E0,8.018779755E0
1.540255799E0,6.404489279E-2,5.505466938E0,7.966107368E0
1.542266060E0,8.319851011E-2,5.519832134E0,7.932588577E0
1.544276320E0,8.319851011E-2,5.529408932E0,7.889492989E0
1.546286580E0,1.119289324E-1,5.524620533E0,7.841609001E0
1.548296841E0,1.119289324E-1,5.515043736E0,7.827243805E0
1.550307101E0,1.262941360E-1,5.524620533E0,7.798513412E0
1.552317362E0,1.119289324E-1,5.524620533E0,7.798513412E0
1.554327622E0,8.798690885E-2,5.515043736E0,7.769783020E0
1.556337882E0,7.362170517E-2,5.515043736E0,7.774571419E0
1.558348143E0,4.967968538E-2,5.515043736E0,7.769783020E0
1.560358403E0,6.883329898E-2,5.519832134E0,7.779359818E0
1.562368664E0,7.362170517E-2,5.505466938E0,7.764994621E0
1.564378924E0,9.277531505E-2,5.505466938E0,7.755417824E0
1.566389185E0,1.023521200E-1,5.495890141E0,7.726687431E0
1.568399445E0,1.167173311E-1,5.486313343E0,7.731475830E0
1.570409705E0,1.119289324E-1,5.462371349E0,7.721899033E0
1.572419966E0,1.502361596E-1,5.452794552E0,7.712322235E0
1.574430226E0,1.502361596E-1,5.438429356E0,7.721899033E0
1.576440487E0,1.502361596E-1,5.414487362E0,7.717110634E0
1.578450747E0,1.646013707E-1,5.294776917E0,8.243835449E0
1.580461007E0,1.598129570E-1,5.242104530E0,8.243835449E0
1.582471268E0,1.789665818E-1,5.256469727E0,7.990049839E0
1.584481528E0,1.646013707E-1,5.289988518E0,7.970896244E0
1.586491789E0,1.837549806E-1,5.357026100E0,7.918223381E0
1.588502049E0,1.598129570E-1,5.395333767E0,7.860762596E0
1.590512310E0,1.550245583E-1,5.409698963E0,7.793725014E0
1.592522570E0,1.741781682E-1,5.419275761E0,7.769783020E0
1.594532830E0,1.693897694E-1,5.419275761E0,7.750629425E0
1.596543091E0,1.837549806E-1,5.366602898E0,7.736264229E0
1.598553351E0,1.885433793E-1,5.323507309E0,7.745841026E0
1.775983092E0,2.750339270E0,6.769605160E0,6.601412773E0
1.777987467E0,2.788646460E0,6.793547153E0,6.711545944E0
1.779993873E0,2.841318846E0,6.817489147E0,6.840832710E0
1.782002363E0,2.860472441E0,6.831854343E0,6.965331078E0
1.784012936E0,2.913144827E0,6.817489147E0,7.104195118E0
1.786025488E0,2.951452255E0,6.822277546E0,7.243058681E0
1.788039863E0,2.984971046E0,6.855796337E0,7.372345448E0
1.790055853E0,3.023278236E0,6.874950409E0,7.482479095E0
1.792073144E0,3.023278236E0,6.889315605E0,7.554305077E0
1.794091426E0,3.028066635E0,6.913257599E0,7.650073051E0
1.796110332E0,3.052008629E0,6.894104004E0,7.726687431E0
1.798129446E0,3.061585426E0,6.894104004E0,7.769783020E0
1.800145957E0,3.099892616E0,6.870162010E0,7.793725014E0
1.802156269E0,3.133411407E0,6.884527206E0,7.793725014E0
1.804166530E0,3.099892616E0,6.932411194E0,7.741052628E0
1.806176790E0,3.061585426E0,6.922834396E0,7.678803444E0
1.808187051E0,2.989759445E0,6.980295181E0,7.573458672E0
1.810197311E0,2.874837637E0,6.994660378E0,7.458536625E0
1.812207571E0,2.697666883E0,7.061697960E0,7.300519466E0
1.814217832E0,2.496553898E0,7.119158745E0,7.104195118E0
1.816228092E0,2.395997286E0,7.114370346E0,6.970119476E0
1.818238353E0,2.348113298E0,7.023390770E0,6.907870293E0
1.820248613E0,2.386420488E0,6.918045998E0,6.950965881E0
1.822258873E0,2.434304476E0,6.836642742E0,6.950965881E0
1.824269134E0,2.419939280E0,6.803123951E0,6.907870293E0
1.826279394E0,2.424727678E0,6.726509571E0,6.836044312E0
1.828289655E0,2.391208887E0,6.697779179E0,6.797737122E0
1.830299915E0,2.324171305E0,6.625953197E0,6.678027153E0
1.832310176E0,2.328959703E0,6.578069210E0,6.615777969E0
1.834320436E0,2.285864115E0,6.530185223E0,6.534375191E0
1.836330696E0,2.257133722E0,6.515820026E0,6.472125530E0
1.838340957E0,2.199672699E0,6.496666431E0,6.400299549E0
1.840351217E0,2.175730705E0,6.410475254E0,6.385934353E0
1.842361478E0,2.166153908E0,6.386533260E0,6.366780758E0
1.844371738E0,2.127846718E0,6.376956463E0,6.318896770E0
1.846381998E0,2.070385933E0,6.376956463E0,6.218340397E0
1.848392259E0,2.065597534E0,6.372167587E0,6.180033207E0
1.850402519E0,2.012925148E0,6.367379189E0,6.108207226E0
1.852412780E0,1.965041041E0,6.410475254E0,6.055534840E0
1.854423040E0,1.907580256E0,6.439205647E0,6.012439251E0
1.856433301E0,1.826177359E0,6.467936039E0,5.931035995E0
1.858443561E0,1.792658567E0,6.467936039E0,5.935824394E0
1.860450123E0,1.725620866E0,6.491878033E0,5.892728806E0
1.862456686E0,1.696890473E0,6.501454830E0,5.916670799E0
1.864463665E0,1.644217968E0,6.501454830E0,5.892728806E0
1.866471165E0,1.601122379E0,6.534973621E0,5.921459198E0
1.868479290E0,1.653794765E0,6.482301235E0,5.959766388E0
1.870488092E0,1.639429569E0,6.443994045E0,5.983708382E0
1.872497623E0,1.692102075E0,6.424840450E0,6.108207226E0
1.874507884E0,1.701678872E0,6.410475254E0,6.180033207E0
1.876518821E0,1.744774461E0,6.357802391E0,6.309319973E0
1.878530384E0,1.783081770E0,6.372167587E0,6.414664745E0
1.880542519E0,1.816600561E0,6.348225594E0,6.520009995E0
1.882555123E0,1.811812162E0,6.362590790E0,6.625354767E0
1.884568092E0,1.807023764E0,6.376956463E0,6.721122742E0
1.886581321E0,1.821388960E0,6.381744862E0,6.850409508E0
1.888594655E0,1.807023764E0,6.391321659E0,6.931812286E0
1.890607988E0,1.811812162E0,6.415263653E0,7.018003941E0
1.892618405E0,1.792658567E0,6.443994045E0,7.108983517E0
1.894628717E0,1.797446966E0,6.453570843E0,7.190386295E0
1.896638978E0,1.787870169E0,6.467936039E0,7.267000675E0
1.898649238E0,1.787870169E0,6.482301235E0,7.300519466E0
1.900659498E0,1.783081770E0,6.482301235E0,7.391499043E0
1.902669759E0,1.783081770E0,6.472724438E0,7.434594631E0
1.904680019E0,1.792658567E0,6.472724438E0,7.496844292E0
1.906690280E0,1.768716455E0,6.453570843E0,7.496844292E0
1.908700540E0,1.797446966E0,6.467936039E0,7.525574684E0
1.910710801E0,1.802235365E0,6.443994045E0,7.539939880E0
1.912721061E0,1.816600561E0,6.424840450E0,7.568670273E0
1.914731321E0,1.864484549E0,6.391321659E0,7.602189064E0
1.916741582E0,1.898003340E0,6.396110058E0,7.621342659E0
1.918751842E0,1.917157054E0,6.391321659E0,7.650073051E0
1.920762103E0,1.926733851E0,6.391321659E0,7.674015045E0
1.922772363E0,1.917157054E0,6.405686855E0,7.688380241E0
1.924782623E0,1.912368655E0,6.424840450E0,7.702745438E0
1.926792884E0,1.878849745E0,6.410475254E0,7.688380241E0
1.928803144E0,1.859696150E0,6.429628849E0,7.683591843E0
1.930813405E0,1.835754156E0,6.396110058E0,7.693168640E0
1.932823665E0,1.807023764E0,6.424840450E0,7.664438248E0
1.934833926E0,1.783081770E0,6.391321659E0,7.678803444E0
1.936844186E0,1.739986062E0,6.391321659E0,7.674015045E0
1.938854446E0,1.711255670E0,6.353013992E0,7.693168640E0
1.940864707E0,1.716044068E0,6.338648796E0,7.736264229E0
1.942874967E0,1.739986062E0,6.305130005E0,7.798513412E0
1.944885228E0,1.759139657E0,6.300341606E0,7.827243805E0
1.946895488E0,1.730409265E0,6.276399612E0,7.851185799E0
1.948905748E0,1.735197663E0,6.281188011E0,7.855974197E0
1.950916009E0,1.735197663E0,6.262034416E0,7.827243805E0
1.952926269E0,1.701678872E0,6.281188011E0,7.779359818E0
1.954936530E0,1.692102075E0,6.295553207E0,7.745841026E0
1.956946790E0,1.644217968E0,6.305130005E0,7.664438248E0
1.958957051E0,1.610699177E0,6.314706802E0,7.568670273E0
1.960967311E0,1.586757183E0,6.276399612E0,7.530363083E0
1.962977571E0,1.567603588E0,6.319495201E0,7.453748226E0
1.964987832E0,1.524507880E0,6.309918404E0,7.396287441E0
1.966998092E0,1.529296279E0,6.300341606E0,7.353191853E0
1.969008353E0,1.529296279E0,6.314706802E0,7.310096264E0
1.971018613E0,1.510142684E0,6.300341606E0,7.262212276E0
1.973028873E0,1.490989089E0,6.300341606E0,7.219116688E0
1.975039134E0,1.471835494E0,6.309918404E0,7.195174694E0
1.977049394E0,1.462258697E0,6.329071999E0,7.113771915E0
1.979059655E0,1.462258697E0,6.333860397E0,7.075464725E0
1.981069915E0,1.447893500E0,6.329071999E0,7.037157536E0
1.983080176E0,1.452681899E0,6.333860397E0,7.003638744E0
1.985090436E0,1.433528304E0,6.333860397E0,6.965331078E0
1.987100696E0,1.428739905E0,6.338648796E0,6.941389084E0
1.989110957E0,1.390432596E0,6.348225594E0,6.912658691E0
1.991121217E0,1.352125406E0,6.348225594E0,6.879139900E0
1.993131478E0,1.328183413E0,6.367379189E0,6.869563103E0
1.995141738E0,1.313818216E0,6.362590790E0,6.821679115E0
1.997151998E0,1.280299306E0,6.376956463E0,6.816890717E0
1.999162259E0,1.280299306E0,6.357802391E0,6.812102318E0
2.001172519E0,1.289876223E0,6.362590790E0,6.797737122E0
2.003182780E0,1.285087705E0,6.362590790E0,6.807313919E0
2.005193040E0,1.289876223E0,6.348225594E0,6.831255913E0
2.007203301E0,1.332971811E0,6.333860397E0,6.836044312E0
2.009213561E0,1.337760210E0,6.343437195E0,6.855197906E0
2.011223821E0,1.361702204E0,6.333860397E0,6.864774704E0
2.013234082E0,1.385644197E0,6.343437195E0,6.898293495E0
2.015244342E0,1.380855799E0,6.333860397E0,6.927023888E0
2.017254603E0,1.385644197E0,6.324283600E0,6.965331078E0
2.019264863E0,1.395220995E0,6.357802391E0,7.018003941E0
2.021275123E0,1.419163108E0,6.333860397E0,7.051522732E0
2.023285384E0,1.428739905E0,6.343437195E0,7.094618320E0
2.025295644E0,1.443105102E0,6.338648796E0,7.152079105E0
2.027305905E0,1.457470298E0,6.381744862E0,7.195174694E0
2.029316165E0,1.476623893E0,6.372167587E0,7.252635479E0
2.031326426E0,1.495777488E0,6.391321659E0,7.286154270E0
2.033336686E0,1.519719481E0,6.391321659E0,7.319673061E0
2.035346946E0,1.500565886E0,6.400898457E0,7.362768650E0
2.037357207E0,1.519719481E0,6.396110058E0,7.377133846E0
2.039367467E0,1.538873196E0,6.391321659E0,7.410652637E0
2.041377728E0,1.529296279E0,6.367379189E0,7.429806232E0
2.043387988E0,1.572391987E0,6.376956463E0,7.434594631E0
2.045398248E0,1.596333981E0,6.367379189E0,7.472901821E0
2.047408509E0,1.605910778E0,6.353013992E0,7.496844292E0
2.049418769E0,1.620275974E0,6.353013992E0,7.506421089E0
2.051429030E0,1.625064373E0,6.343437195E0,7.535151482E0
2.053439290E0,1.620275974E0,6.333860397E0,7.554305077E0
2.055449551E0,1.615487576E0,6.333860397E0,7.578247070E0
2.057459811E0,1.615487576E0,6.338648796E0,7.583035469E0
2.059470071E0,1.625064373E0,6.333860397E0,7.611765862E0
2.061480332E0,1.634641171E0,6.333860397E0,7.611765862E0
2.063490592E0,1.629852772E0,6.309918404E0,7.626131058E0
2.065500853E0,1.605910778E0,6.300341606E0,7.664438248E0
2.067511113E0,1.581968784E0,6.314706802E0,7.659649849E0
2.069521373E0,1.572391987E0,6.324283600E0,7.674015045E0
2.071531634E0,1.567603588E0,6.324283600E0,7.693168640E0
2.073541894E0,1.591545582E0,6.343437195E0,7.674015045E0
2.075552155E0,1.615487576E0,6.333860397E0,7.669226646E0
2.077562415E0,1.610699177E0,6.314706802E0,7.688380241E0
2.079572676E0,1.605910778E0,6.314706802E0,7.697957039E0
2.081582936E0,1.586757183E0,6.333860397E0,7.659649849E0
2.083593196E0,1.586757183E0,6.348225594E0,7.640496254E0
2.085603457E0,1.620275974E0,6.372167587E0,7.606977463E0
2.087613717E0,1.658583283E0,6.367379189E0,7.563881874E0
2.089623978E0,1.653794765E0,6.348225594E0,7.563881874E0
2.091634238E0,1.591545582E0,6.333860397E0,7.515997887E0
2.093644498E0,1.500565886E0,6.343437195E0,7.501632690E0
2.095654759E0,1.433528304E0,6.333860397E0,7.444171429E0
2.097665019E0,1.462258697E0,6.367379189E0,7.415441036E0
2.099675280E0,1.605910778E0,6.391321659E0,7.367557049E0
2.101685540E0,1.668160081E0,6.329071999E0,7.348403454E0
2.103695801E0,1.629852772E0,6.276399612E0,7.396287441E0
2.105702832E0,1.514931083E0,6.242880821E0,7.401075840E0
2.107709863E0,1.390432596E0,6.242880821E0,7.396287441E0
2.109717311E0,1.323395014E0,6.257246017E0,7.357980251E0
2.111725280E0,1.347337008E0,6.252457619E0,7.348403454E0
2.113733821E0,1.495777488E0,6.262034416E0,7.367557049E0
2.115742988E0,1.730409265E0,6.266822815E0,7.334038258E0
2.117752780E0,1.720832467E0,6.142324448E0,7.405864239E0
2.119763196E0,1.553238392E0,6.118382454E0,7.463325024E0
2.121774238E0,1.337760210E0,6.142324448E0,7.458536625E0
2.123785853E0,1.227626920E0,6.166266441E0,7.415441036E0
2.125797936E0,1.227626920E0,6.142324448E0,7.381922245E0
2.127810384E0,1.275510907E0,6.147112846E0,7.381922245E0
2.129823092E0,1.371279001E0,6.137536049E0,7.415441036E0
2.131835957E0,1.639429569E0,6.166266441E0,7.391499043E0
2.133848873E0,1.639429569E0,6.060921669E0,7.458536625E0
2.135861373E0,1.438316703E0,6.041768074E0,7.520786285E0
2.137871634E0,1.232415318E0,6.084863663E0,7.472901821E0
2.139881894E0,1.122282028E0,6.094440460E0,7.405864239E0
2.141892155E0,1.074398041E0,6.089652061E0,7.381922245E0
2.143902415E0,1.098340034E0,6.080075264E0,7.329249859E0
2.145912676E0,1.151012421E0,6.070498466E0,7.362768650E0
2.147922936E0,1.160589218E0,6.056133270E0,7.353191853E0
2.149933196E0,1.141435623E0,6.056133270E0,7.357980251E0
2.151943457E0,1.136647224E0,6.051344872E0,7.310096264E0
2.153953717E0,1.127070427E0,6.080075264E0,7.271789074E0
2.155963978E0,1.170166135E0,6.075286865E0,7.257423878E0
2.157974238E0,1.189319730E0,6.113594055E0,7.228693485E0
2.159984498E0,1.237203717E0,6.113594055E0,7.214328289E0
2.161994759E0,1.289876223E0,6.137536049E0,7.214328289E0
2.164005019E0,1.342548609E0,6.151901245E0,7.247847080E0
2.166015280E0,1.395220995E0,6.132747650E0,7.300519466E0
2.168025540E0,1.428739905E0,6.171054840E0,7.357980251E0
2.170035801E0,1.452681899E0,6.166266441E0,7.444171429E0
2.172046061E0,1.476623893E0,6.209362030E0,7.492055893E0
2.174056321E0,1.486200690E0,6.218938828E0,7.535151482E0
2.176066582E0,1.486200690E0,6.262034416E0,7.606977463E0
2.178076842E0,1.495777488E0,6.252457619E0,7.664438248E0
2.180087103E0,1.514931083E0,6.295553207E0,7.721899033E0
2.182097363E0,1.490989089E0,6.329071999E0,7.769783020E0
2.184107623E0,1.486200690E0,6.353013992E0,7.822455406E0
2.186117884E0,1.505354285E0,6.367379189E0,7.860762596E0
2.188128144E0,1.562815189E0,6.391321659E0,7.846397400E0
2.190138405E0,1.586757183E0,6.381744862E0,7.846397400E0
2.192148665E0,1.701678872E0,6.443994045E0,7.846397400E0
2.194158926E0,1.888426542E0,6.482301235E0,7.860762596E0
2.196169186E0,1.859696150E0,6.372167587E0,7.889492989E0
2.198179446E0,1.625064373E0,6.410475254E0,7.908646584E0
2.200189707E0,1.380855799E0,6.410475254E0,7.760206223E0
2.202199967E0,1.198896527E0,6.400898457E0,7.683591843E0
2.204210228E0,1.131858826E0,6.367379189E0,7.640496254E0
2.206220488E0,1.165377736E0,6.319495201E0,7.621342659E0
2.208230748E0,1.280299306E0,6.276399612E0,7.669226646E0
2.210241009E0,1.371279001E0,6.223727226E0,7.654861450E0
2.212251269E0,1.457470298E0,6.209362030E0,7.626131058E0
2.214261530E0,1.591545582E0,6.223727226E0,7.573458672E0
2.216271790E0,1.581968784E0,6.142324448E0,7.554305077E0
2.218282051E0,1.390432596E0,6.142324448E0,7.578247070E0
2.220292311E0,1.261145711E0,6.123170853E0,7.487267494E0
2.222302571E0,1.155800819E0,6.070498466E0,7.405864239E0
2.224312832E0,1.136647224E0,6.056133270E0,7.468113422E0
2.226323092E0,1.227626920E0,5.979518890E0,8.095394135E0
2.228333353E0,1.294664621E0,5.907692909E0,8.100182533E0
2.230343613E0,1.337760210E0,5.850231647E0,7.975684643E0
2.232353873E0,1.356913805E0,5.855020046E0,7.855974197E0
2.234364134E0,1.332971811E0,5.874173641E0,7.760206223E0
2.236374394E0,1.318606615E0,5.907692909E0,7.650073051E0
2.238384655E0,1.342548609E0,5.969942093E0,7.573458672E0
2.240394915E0,1.352125406E0,5.984307289E0,7.496844292E0
2.242405176E0,1.380855799E0,6.008249283E0,7.410652637E0
2.244415436E0,1.380855799E0,6.046556473E0,7.348403454E0
2.246425696E0,1.428739905E0,6.089652061E0,7.300519466E0
2.248435957E0,1.452681899E0,6.108805656E0,7.286154270E0
2.250446217E0,1.462258697E0,6.127959251E0,7.286154270E0
2.252456478E0,1.471835494E0,6.180631638E0,7.319673061E0
2.254466738E0,1.471835494E0,6.209362030E0,7.367557049E0
2.256476998E0,1.462258697E0,6.242880821E0,7.377133846E0
2.258487259E0,1.447893500E0,6.281188011E0,7.410652637E0
2.260497519E0,1.447893500E0,6.300341606E0,7.439383030E0
2.262507780E0,1.452681899E0,6.353013992E0,7.453748226E0
2.264518040E0,1.385644197E0,6.357802391E0,7.482479095E0
2.266528301E0,1.294664621E0,6.357802391E0,7.487267494E0
2.268538561E0,1.222838521E0,6.386533260E0,7.482479095E0
2.270548821E0,1.174954534E0,6.372167587E0,7.496844292E0
2.272559082E0,1.155800819E0,6.367379189E0,7.477690697E0
2.274569342E0,1.160589218E0,6.372167587E0,7.482479095E0
2.276579603E0,1.184531331E0,6.338648796E0,7.453748226E0
2.278589863E0,1.179742932E0,6.319495201E0,7.405864239E0
2.280600123E0,1.189319730E0,6.290764809E0,7.372345448E0
2.282610384E0,1.194108129E0,6.242880821E0,7.324461460E0
2.284620644E0,1.218050122E0,6.209362030E0,7.290942669E0
2.286630905E0,1.270722508E0,6.180631638E0,7.271789074E0
2.288641165E0,1.313818216E0,6.166266441E0,7.199963093E0
2.290651426E0,1.395220995E0,6.151901245E0,7.147290707E0
2.292661686E0,1.423951507E0,6.104017258E0,7.137713909E0
2.294671946E0,1.462258697E0,6.046556473E0,7.223905087E0
2.296682207E0,1.476623893E0,6.017826080E0,7.295731068E0
2.298692467E0,1.462258697E0,6.003460884E0,7.386710644E0
2.300702728E0,1.486200690E0,5.993884087E0,7.472901821E0
2.302712988E0,1.514931083E0,6.003460884E0,7.539939880E0
2.304723248E0,1.524507880E0,6.003460884E0,7.587823868E0
2.306733509E0,1.534084797E0,6.013037682E0,7.616554260E0
2.308743769E0,1.519719481E0,6.032191277E0,7.674015045E0
2.310754030E0,1.490989089E0,6.070498466E0,7.669226646E0
2.312764290E0,1.486200690E0,6.099228859E0,7.674015045E0
2.314774551E0,1.476623893E0,6.113594055E0,7.664438248E0
2.316784811E0,1.510142684E0,6.194996834E0,7.678803444E0
2.318795071E0,1.553238392E0,6.247669220E0,7.664438248E0
2.320805332E0,1.553238392E0,6.247669220E0,7.650073051E0
2.322815592E0,1.481412292E0,6.242880821E0,7.678803444E0
2.324825853E0,1.390432596E0,6.271611214E0,7.645284653E0
2.326836113E0,1.309029818E0,6.290764809E0,7.611765862E0
2.328846426E0,1.280299306E0,6.285976410E0,7.573458672E0
2.330856738E0,1.280299306E0,6.290764809E0,7.530363083E0
2.332867051E0,1.356913805E0,6.319495201E0,7.434594631E0
2.334877363E0,1.462258697E0,6.367379189E0,7.324461460E0
2.336887676E0,1.433528304E0,6.262034416E0,7.329249859E0
2.338897988E0,1.332971811E0,6.214150429E0,7.295731068E0
2.340908301E0,1.232415318E0,6.204573631E0,7.199963093E0
2.342918613E0,1.165377736E0,6.147112846E0,7.132925510E0
2.344928926E0,1.146224022E0,6.118382454E0,7.080253124E0
2.346939238E0,1.237203717E0,6.123170853E0,7.075464725E0
2.348949551E0,1.371279001E0,6.151901245E0,7.027580738E0
2.350959863E0,1.414374709E0,6.041768074E0,7.089829922E0
2.352970176E0,1.337760210E0,5.917269707E0,7.176021099E0
2.354976998E0,1.241992116E0,5.898116112E0,7.118560314E0
2.356983821E0,1.213261724E0,5.893327713E0,7.128137112E0
2.358991061E0,1.237203717E0,5.845443249E0,7.089829922E0
2.360998821E0,1.256357312E0,5.845443249E0,7.075464725E0
2.363007207E0,1.371279001E0,5.931634903E0,7.041945934E0
2.365016269E0,1.390432596E0,5.893327713E0,7.089829922E0
2.367026009E0,1.203684926E0,5.859808445E0,7.166444302E0
2.369036426E0,1.007360339E0,5.888539314E0,7.161655903E0
2.371047467E0,8.828618526E-1,5.950788498E0,7.180809498E0
2.373059082E0,8.349778652E-1,5.974730492E0,7.223905087E0
2.375071217E0,9.020155072E-1,6.046556473E0,7.252635479E0
2.377083769E0,1.074398041E0,6.118382454E0,7.228693485E0
2.379096634E0,9.786299467E-1,6.051344872E0,7.405864239E0
2.381109707E0,8.158242106E-1,6.060921669E0,7.468113422E0
2.383122832E0,6.578069329E-1,6.051344872E0,7.487267494E0
2.385135332E0,6.147112846E-1,6.060921669E0,7.525574684E0
2.387145644E0,6.290764809E-1,6.041768074E0,7.568670273E0
2.389155905E0,7.392097712E-1,6.056133270E0,7.587823868E0
2.391166165E0,9.834183455E-1,6.118382454E0,7.549516678E0
2.393176426E0,9.546879530E-1,6.008249283E0,7.635707855E0
2.395186686E0,7.823054194E-1,5.989095688E0,7.659649849E0
2.397196946E0,6.482301354E-1,5.993884087E0,7.645284653E0
2.399207207E0,5.859808922E-1,5.974730492E0,7.678803444E0
2.401217467E0,5.907692909E-1,5.946000099E0,7.693168640E0
2.403227728E0,6.386532784E-1,5.907692909E0,7.683591843E0
2.405237988E0,7.296329737E-1,5.883750439E0,7.688380241E0
2.407248248E0,8.828618526E-1,5.883750439E0,7.736264229E0
2.409258509E0,1.112705231E0,5.883750439E0,7.736264229E0
2.411268769E0,1.060032845E0,5.792770863E0,7.822455406E0
2.413279030E0,9.068039060E-1,5.764040470E0,7.855974197E0
2.415289290E0,7.679402232E-1,5.759252071E0,7.879916191E0
2.417299551E0,7.200561762E-1,5.740098476E0,7.913434982E0
2.419309811E0,7.152677774E-1,5.740098476E0,7.908646584E0
2.421320071E0,7.200561762E-1,5.711368084E0,7.923011780E0
2.423330332E0,7.870938182E-1,5.692214489E0,7.946953773E0
2.425340592E0,8.828618526E-1,5.759252071E0,7.990049839E0
2.427350853E0,1.174954534E0,5.797559261E0,7.951742172E0
2.429361113E0,1.088763237E0,5.740098476E0,8.037933350E0
2.431371373E0,8.397662640E-1,5.749675274E0,8.085817337E0
2.433381634E0,6.721721292E-1,5.773617268E0,8.109759331E0
2.435391894E0,5.811924338E-1,5.816712856E0,8.191162109E0
2.437402155E0,6.338648796E-1,5.816712856E0,8.248623848E0
2.439412415E0,7.487865686E-1,5.864596844E0,8.353968620E0
2.441422676E0,1.112705231E0,5.960365295E0,8.411429405E0
2.443432936E0,1.112705231E0,5.902904510E0,8.516774178E0
2.445443196E0,8.684966564E-1,5.912481308E0,8.607753754E0
2.447453457E0,7.009025216E-1,5.936423302E0,8.631695747E0
2.449463717E0,6.434416771E-1,5.965153694E0,8.665214539E0
2.451473978E0,7.487865686E-1,5.989095688E0,8.689156532E0
2.453484238E0,1.112705231E0,6.089652061E0,8.684368134E0
2.455494498E0,1.371279001E0,6.070498466E0,8.689156532E0
2.457504759E0,1.179742932E0,5.993884087E0,8.713098526E0
2.459515019E0,9.738415480E-1,5.974730492E0,8.746617317E0
2.461525280E0,9.211691022E-1,5.946000099E0,8.765770912E0
2.463535540E0,1.261145711E0,6.003460884E0,8.808866501E0
2.465545801E0,1.577180386E0,5.969942093E0,8.799289703E0
2.467556061E0,1.428739905E0,5.893327713E0,8.847173691E0
2.469566321E0,1.438316703E0,5.902904510E0,8.871115685E0
2.471576582E0,1.581968784E0,5.931634903E0,8.832808495E0
2.473586842E0,1.538873196E0,5.907692909E0,8.871115685E0
2.475597103E0,1.548449993E0,5.898116112E0,8.828020096E0
2.477607363E0,1.649006367E0,5.902904510E0,8.818443298E0
2.479617623E0,1.644217968E0,5.888539314E0,8.780136108E0
2.481627884E0,1.663371682E0,5.888539314E0,8.727463722E0
2.483638144E0,1.672948480E0,5.888539314E0,8.684368134E0
2.485648405E0,1.692102075E0,5.893327713E0,8.626907349E0
2.487658665E0,1.687313676E0,5.898116112E0,8.569446564E0
2.489668926E0,1.701678872E0,5.898116112E0,8.478466988E0
2.491679186E0,1.682525277E0,5.888539314E0,8.406641006E0
2.493689446E0,1.677736878E0,5.874173641E0,8.330026627E0
2.495699707E0,1.677736878E0,5.864596844E0,8.291719437E0
2.497709967E0,1.668160081E0,5.874173641E0,8.215105057E0
2.499720228E0,1.634641171E0,5.874173641E0,8.157643318E0
2.501730488E0,1.610699177E0,5.850231647E0,8.100182533E0
2.503740748E0,1.558026791E0,5.874173641E0,8.047510147E0
2.505751009E0,1.519719481E0,5.874173641E0,7.990049839E0
2.507761269E0,1.505354285E0,5.874173641E0,7.961318970E0
2.509771530E0,1.486200690E0,5.874173641E0,7.908646584E0
2.511781790E0,1.438316703E0,5.859808445E0,7.817667007E0
2.513792051E0,1.414374709E0,5.845443249E0,7.774571419E0
2.515802311E0,1.376067400E0,5.840654850E0,7.736264229E0
2.517812571E0,1.332971811E0,5.831078053E0,7.669226646E0
2.519822832E0,1.289876223E0,5.816712856E0,7.635707855E0
2.521833092E0,1.246780515E0,5.821501255E0,7.597400665E0
2.523843353E0,1.222838521E0,5.816712856E0,7.563881874E0
2.525853613E0,1.170166135E0,5.778405666E0,7.539939880E0
2.527863873E0,1.093551636E0,5.783194065E0,7.496844292E0
2.529874134E0,1.055244446E0,5.773617268E0,7.468113422E0
2.531884394E0,9.929951429E-1,5.773617268E0,7.468113422E0
2.533894655E0,9.403226972E-1,5.759252071E0,7.439383030E0
2.535904915E0,8.924387097E-1,5.749675274E0,7.415441036E0
2.537915176E0,8.493430614E-1,5.730521679E0,7.420229435E0
2.539925436E0,7.870938182E-1,5.725733280E0,7.367557049E0
2.541935696E0,7.392097712E-1,5.730521679E0,7.353191853E0
2.543945957E0,7.056909800E-1,5.720944881E0,7.362768650E0
2.545956217E0,6.386532784E-1,5.711368084E0,7.338826656E0
2.547966478E0,6.338648796E-1,5.692214489E0,7.343615055E0
2.549976738E0,5.907692909E-1,5.687426090E0,7.314884663E0
2.551986998E0,5.524620414E-1,5.677849293E0,7.305307865E0
2.553997259E0,5.285200477E-1,5.668272495E0,7.319673061E0
2.556007571E0,4.950011969E-1,5.653907299E0,7.305307865E0
2.558017884E0,4.519055784E-1,5.634753704E0,7.343615055E0
2.560028196E0,4.423287511E-1,5.644330502E0,7.348403454E0
2.562038509E0,4.135983288E-1,5.649118900E0,7.348403454E0
2.564048821E0,3.848679364E-1,5.620388508E0,7.377133846E0
2.566059134E0,3.609259129E-1,5.625176907E0,7.386710644E0
2.568069446E0,3.417722881E-1,5.634753704E0,7.401075840E0
2.570079759E0,3.321954906E-1,5.625176907E0,7.448959827E0
2.572090071E0,3.465606868E-1,5.625176907E0,7.506421089E0
2.574100384E0,3.321954906E-1,5.629965305E0,7.563881874E0
2.576110696E0,3.274070919E-1,5.629965305E0,7.606977463E0
2.578121009E0,3.513490856E-1,5.639542103E0,7.664438248E0
2.580131321E0,3.609259129E-1,5.620388508E0,7.717110634E0
2.582141634E0,3.800795078E-1,5.615600109E0,7.745841026E0
2.584151946E0,3.848679364E-1,5.639542103E0,7.788936615E0
2.586162259E0,4.279635549E-1,5.629965305E0,7.808090210E0
2.588172571E0,4.519055784E-1,5.644330502E0,7.865550995E0
2.590182884E0,4.614823759E-1,5.644330502E0,7.884704590E0
2.592193196E0,4.758476019E-1,5.634753704E0,7.942165375E0
2.594203509E0,4.997895956E-1,5.649118900E0,7.994838238E0
2.596213821E0,5.285200477E-1,5.644330502E0,8.018779755E0
2.598224134E0,5.764040351E-1,5.663484097E0,8.076240540E0
2.600234446E0,6.003460884E-1,5.668272495E0,8.138489723E0
2.602244759E0,6.242880821E-1,5.677849293E0,8.157643318E0
2.604255071E0,6.578069329E-1,5.697002888E0,8.191162109E0
2.606265957E0,7.009025216E-1,5.701791286E0,8.229470253E0
2.608276009E0,7.248445749E-1,5.697002888E0,8.229470253E0
2.610286061E0,7.344213724E-1,5.697002888E0,8.248623848E0
2.612296113E0,7.727286220E-1,5.692214489E0,8.253412247E0
2.614306165E0,7.727286220E-1,5.677849293E0,8.296507835E0
2.616316217E0,8.014590144E-1,5.668272495E0,8.320449829E0
2.618326269E0,8.254010081E-1,5.677849293E0,8.334815025E0
2.620336373E0,8.493430614E-1,5.677849293E0,8.358757019E0
2.622346530E0,8.637082577E-1,5.677849293E0,8.387487411E0
2.624356738E0,8.780734539E-1,5.687426090E0,8.397064209E0
2.626366998E0,8.732850552E-1,5.692214489E0,8.406641006E0
2.628377311E0,8.924387097E-1,5.673060894E0,8.425794601E0
2.630387676E0,9.163807034E-1,5.692214489E0,8.421006203E0
2.632398092E0,9.163807034E-1,5.711368084E0,8.440159798E0
2.634408509E0,9.211691022E-1,5.725733280E0,8.430583000E0
2.636418926E0,9.211691022E-1,5.740098476E0,8.421006203E0
2.638429342E0,9.307458997E-1,5.735310078E0,8.387487411E0
2.640439759E0,9.403226972E-1,5.740098476E0,8.377910614E0
2.642450176E0,9.211691022E-1,5.744886875E0,8.330026627E0
2.644460592E0,9.594763517E-1,5.744886875E0,8.291719437E0
2.646471009E0,9.546879530E-1,5.744886875E0,8.282142639E0
2.648481426E0,9.642647505E-1,5.725733280E0,8.258200645E0
2.650491842E0,9.546879530E-1,5.749675274E0,8.200738907E0
2.652502103E0,9.690531492E-1,5.735310078E0,8.167220116E0
2.654512363E0,9.546879530E-1,5.697002888E0,8.119336128E0
2.656522623E0,9.594763517E-1,5.711368084E0,8.085817337E0
2.658532884E0,9.738415480E-1,5.687426090E0,8.047510147E0
2.660543144E0,9.498994946E-1,5.677849293E0,8.013991356E0
2.662553405E0,9.403226972E-1,5.668272495E0,7.966107368E0
2.664563665E0,9.451110959E-1,5.673060894E0,7.946953773E0
2.666573926E0,9.259575009E-1,5.639542103E0,7.927800179E0
2.668584186E0,8.924387097E-1,5.596446514E0,7.899069786E0
2.670594446E0,8.876502514E-1,5.606023312E0,7.903858185E0
2.672604707E0,9.020155072E-1,5.610811710E0,7.894281387E0
2.674614967E0,8.637082577E-1,5.596446514E0,7.879916191E0
2.676625228E0,8.493430614E-1,5.596446514E0,7.870339394E0
2.678635488E0,8.254010081E-1,5.586869717E0,7.855974197E0
2.680645748E0,7.870938182E-1,5.558139324E0,7.860762596E0
2.682656009E0,7.439981699E-1,5.606023312E0,7.879916191E0
2.684666269E0,7.439981699E-1,5.601234913E0,7.903858185E0
2.686676530E0,7.344213724E-1,5.620388508E0,7.875127792E0
2.688686790E0,7.104793787E-1,5.615600109E0,7.913434982E0
2.690697051E0,7.104793787E-1,5.634753704E0,7.894281387E0
2.692707311E0,6.769605279E-1,5.620388508E0,7.913434982E0
2.694717571E0,6.817489266E-1,5.639542103E0,7.908646584E0
2.696727832E0,7.009025216E-1,5.653907299E0,7.889492989E0
2.698738092E0,6.961141229E-1,5.673060894E0,7.889492989E0
2.700748353E0,6.961141229E-1,5.663484097E0,7.870339394E0
2.702758613E0,7.104793787E-1,5.668272495E0,7.855974197E0
2.704768873E0,7.056909800E-1,5.673060894E0,7.846397400E0
2.706779134E0,7.344213724E-1,5.692214489E0,7.855974197E0
2.708789394E0,7.631517649E-1,5.668272495E0,7.836820602E0
2.710799655E0,7.679402232E-1,5.673060894E0,7.808090210E0
2.712809915E0,7.679402232E-1,5.668272495E0,7.769783020E0
2.714820176E0,7.918822169E-1,5.653907299E0,7.779359818E0
2.716830436E0,7.966706157E-1,5.663484097E0,7.745841026E0
2.718840696E0,8.014590144E-1,5.673060894E0,7.721899033E0
2.720850957E0,7.966706157E-1,5.673060894E0,7.697957039E0
2.722861217E0,8.062474132E-1,5.663484097E0,7.674015045E0
2.724871478E0,7.966706157E-1,5.677849293E0,7.674015045E0
2.726881738E0,8.206126094E-1,5.668272495E0,7.626131058E0
2.728891998E0,7.823054194E-1,5.677849293E0,7.606977463E0
2.730902259E0,7.870938182E-1,5.653907299E0,7.583035469E0
2.732912519E0,7.583633661E-1,5.653907299E0,7.563881874E0
2.734922780E0,7.296329737E-1,5.663484097E0,7.530363083E0
2.736933040E0,7.152677774E-1,5.668272495E0,7.530363083E0
2.738943301E0,6.721721292E-1,5.682637691E0,7.515997887E0
2.740953561E0,6.530185342E-1,5.658695698E0,7.549516678E0
2.742963821E0,6.194996834E-1,5.658695698E0,7.535151482E0
2.744974082E0,6.099228859E-1,5.673060894E0,7.559093475E0
2.746984342E0,6.051344872E-1,5.658695698E0,7.578247070E0
2.748994603E0,5.955576897E-1,5.653907299E0,7.563881874E0
2.751004863E0,6.242880821E-1,5.649118900E0,7.544728279E0
2.753015123E0,6.051344872E-1,5.644330502E0,7.506421089E0
2.755025384E0,6.625953317E-1,5.653907299E0,7.448959827E0
2.757035644E0,6.865373254E-1,5.620388508E0,7.425017834E0
2.759045905E0,6.865373254E-1,5.596446514E0,7.415441036E0
2.761056165E0,6.865373254E-1,5.629965305E0,7.377133846E0
2.763066426E0,6.721721292E-1,5.615600109E0,7.348403454E0
2.765076686E0,7.056909800E-1,5.615600109E0,7.348403454E0
2.767086946E0,7.248445749E-1,5.596446514E0,7.334038258E0
2.769097207E0,7.104793787E-1,5.601234913E0,7.310096264E0
2.771107467E0,7.104793787E-1,5.591658115E0,7.329249859E0
2.773117728E0,7.248445749E-1,5.582081318E0,7.305307865E0
2.775127988E0,7.344213724E-1,5.572504520E0,7.300519466E0
2.777138248E0,7.344213724E-1,5.558139324E0,7.300519466E0
2.779148509E0,7.296329737E-1,5.543774128E0,7.314884663E0
2.781158769E0,7.296329737E-1,5.548562527E0,7.343615055E0
2.783169030E0,7.200561762E-1,5.538985729E0,7.367557049E0
2.785179290E0,7.200561762E-1,5.534197330E0,7.386710644E0
2.787189551E0,7.200561762E-1,5.524620533E0,7.391499043E0
2.789199811E0,7.200561762E-1,5.515043736E0,7.434594631E0
2.791210071E0,6.961141229E-1,5.491101742E0,7.453748226E0
2.793220332E0,6.769605279E-1,5.471948147E0,7.477690697E0
2.795230592E0,6.673837304E-1,5.452794552E0,7.515997887E0
2.797240853E0,6.194996834E-1,5.433640957E0,7.559093475E0
2.799251165E0,5.811924338E-1,5.409698963E0,7.616554260E0
2.801261478E0,5.524620414E-1,5.400122166E0,7.693168640E0
2.803271790E0,5.141547918E-1,5.376179695E0,7.764994621E0
2.805282103E0,4.758476019E-1,5.342660904E0,7.827243805E0
2.807292415E0,4.710591733E-1,5.342660904E0,7.913434982E0
2.809302728E0,4.423287511E-1,5.313930511E0,7.975684643E0
2.811313040E0,4.183867574E-1,5.275623322E0,8.047510147E0
2.813323353E0,4.088099301E-1,5.256469727E0,8.095394135E0
2.815333665E0,3.944447339E-1,5.242104530E0,8.176796913E0
2.817343978E0,3.609259129E-1,5.218162537E0,8.234258652E0
2.819354290E0,3.465606868E-1,5.208585739E0,8.310873032E0
2.821364603E0,3.321954906E-1,5.189432144E0,8.358757019E0
2.823374915E0,3.226186931E-1,5.203797340E0,8.449736595E0
2.825385228E0,2.843114436E-1,5.179855347E0,8.531139374E0
2.827395540E0,3.082534671E-1,5.179855347E0,8.622118950E0
2.829405853E0,2.747346461E-1,5.160701752E0,8.708310127E0
2.831416165E0,2.938882709E-1,5.151124954E0,8.780136108E0
2.833426478E0,2.555810213E-1,5.131971359E0,8.880692482E0
2.835436790E0,2.555810213E-1,5.108029366E0,8.971672058E0
2.837447103E0,2.316390127E-1,5.088875771E0,9.043498039E0
2.839457415E0,2.316390127E-1,5.088875771E0,9.139266014E0
2.841467728E0,2.172738016E-1,5.079298973E0,9.211092949E0
2.843478040E0,1.741781682E-1,5.069722176E0,9.292495728E0
2.845488353E0,1.358709484E-1,5.084087372E0,9.369110107E0
2.847498665E0,9.277531505E-2,5.079298973E0,9.450512886E0
2.849508978E0,1.023521200E-1,5.103240967E0,9.469666481E0
2.851519290E0,5.446808785E-2,5.093664169E0,9.551069260E0
2.853529603E0,4.489128292E-2,5.079298973E0,9.618106842E0
2.855536217E0,3.531447425E-2,5.036203384E0,9.661202431E0
2.857542832E0,3.531447425E-2,5.036203384E0,9.689932823E0
2.859549863E0,4.489128292E-2,4.988319397E0,9.747393608E0
2.861557415E0,5.925649032E-2,4.983530998E0,9.761758804E0
2.863565592E0,3.052607179E-2,4.959589005E0,9.785700798E0
2.865574446E0,2.094926499E-2,4.959589005E0,9.814431190E0
2.867584030E0,1.616086066E-2,4.911705017E0,9.828796387E0
2.869594342E0,2.573766746E-2,4.921281815E0,9.833584785E0
2.871605332E0,1.795651275E-3,4.887762547E0,9.804854393E0
2.873616946E0,1.137245819E-2,4.887762547E0,9.800065994E0
2.875629134E0,-2.992752008E-3,4.863820553E0,9.761758804E0
2.877641790E0,-3.651157767E-2,4.849455357E0,9.742605209E0
2.879654759E0,-3.651157767E-2,4.854243755E0,9.694721222E0
2.881667936E0,-5.566519126E-2,4.835090160E0,9.689932823E0
2.883681217E0,-1.035492271E-1,4.835090160E0,9.661202431E0
2.885694394E0,-1.370680481E-1,4.820724964E0,9.613318443E0
2.887704655E0,-1.753752679E-1,4.791994572E0,9.613318443E0
2.889714915E0,-2.232593149E-1,4.806359768E0,9.584588051E0
2.891725176E0,-2.376245260E-1,4.820724964E0,9.551069260E0
2.893735436E0,-3.190273643E-1,4.796782970E0,9.527127266E0
2.895745696E0,-3.573346138E-1,4.801571369E0,9.560646057E0
2.897755957E0,-3.860650361E-1,4.768052578E0,9.503185272E0
2.899766217E0,-3.956418335E-1,4.777629375E0,9.469666481E0
2.901776478E0,-4.195838571E-1,4.748898983E0,9.426570892E0
2.903786738E0,-4.291606545E-1,4.768052578E0,9.364321709E0
2.905796998E0,-4.578910768E-1,4.748898983E0,9.326014519E0
2.907807259E0,-4.722562730E-1,4.763264179E0,9.230246544E0
2.909817519E0,-4.818331003E-1,4.768052578E0,9.153631210E0
2.911827780E0,-4.722562730E-1,4.782417774E0,9.100958824E0
2.913838040E0,-4.770447016E-1,4.787206173E0,9.000402451E0
2.915848301E0,-4.866214991E-1,4.787206173E0,8.947730064E0
2.917858561E0,-4.626794755E-1,4.787206173E0,8.837596893E0
2.919868821E0,-5.057750940E-1,4.782417774E0,8.775347710E0
2.921879082E0,-4.291606545E-1,4.796782970E0,8.708310127E0
2.923889342E0,-4.339490533E-1,4.772840977E0,8.636484146E0
2.925899603E0,-4.770447016E-1,4.791994572E0,8.569446564E0
2.927909863E0,-4.626794755E-1,4.806359768E0,8.507197380E0
2.929920123E0,-5.057750940E-1,4.787206173E0,8.478466988E0
2.931930384E0,-4.483142793E-1,4.835090160E0,8.406641006E0
2.933940644E0,-4.004302323E-1,4.820724964E0,8.368333817E0
2.935950905E0,-4.339490533E-1,4.825513363E0,8.344391823E0
2.937961165E0,-4.339490533E-1,4.820724964E0,8.296507835E0
2.939971426E0,-4.243722558E-1,4.830301762E0,8.277354240E0
2.941981686E0,-4.004302323E-1,4.854243755E0,8.243835449E0
2.943991946E0,-3.956418335E-1,4.835090160E0,8.215105057E0
2.946002207E0,-4.147954583E-1,4.844666958E0,8.181585312E0
2.948012467E0,-4.100070298E-1,4.863820553E0,8.172008514E0
2.950022728E0,-3.381809890E-1,4.892550945E0,8.157643318E0
2.952032988E0,-2.950853705E-1,4.911705017E0,8.133701324E0
2.954043248E0,-2.663549483E-1,4.916493416E0,8.090605736E0
2.956053509E0,-2.855085433E-1,4.902127743E0,8.071452141E0
2.958063769E0,-3.190273643E-1,4.906916618E0,8.071452141E0
2.960074030E0,-3.573346138E-1,4.892550945E0,8.061875343E0
2.962084290E0,-4.531026781E-1,4.882974148E0,8.037933350E0
2.964094551E0,-4.243722558E-1,4.921281815E0,8.061875343E0
2.966104811E0,-2.663549483E-1,5.026626587E0,8.085817337E0
2.968115071E0,-2.693476900E-2,5.141548157E0,8.095394135E0
2.970125332E0,2.699462473E-1,5.227739334E0,8.114547729E0
2.972135592E0,5.380968451E-1,5.337872505E0,8.114547729E0
2.974145853E0,8.110358119E-1,5.419275761E0,8.090605736E0
2.976156113E0,1.012148738E0,5.486313343E0,8.104970932E0
2.978166373E0,1.174954534E0,5.538985729E0,8.071452141E0
2.980176634E0,1.256357312E0,5.553350925E0,8.057086945E0
2.982186894E0,1.304241419E0,5.529408932E0,8.033144951E0
2.984197155E0,1.285087705E0,5.524620533E0,8.071452141E0
2.986207415E0,1.213261724E0,5.510255337E0,8.057086945E0
2.988217676E0,1.127070427E0,5.495890141E0,8.076240540E0
2.990227936E0,1.031302333E0,5.476736546E0,8.109759331E0
2.992238196E0,9.163807034E-1,5.462371349E0,8.138489723E0
2.994248457E0,8.349778652E-1,5.448006153E0,8.162431717E0
2.996258717E0,7.583633661E-1,5.438429356E0,8.186373711E0
2.998268978E0,7.296329737E-1,5.443217754E0,8.224681854E0
3.000279238E0,7.344213724E-1,5.428852558E0,8.272565842E0
3.002289498E0,7.535749674E-1,5.457582951E0,8.291719437E0
3.004299759E0,8.158242106E-1,5.457582951E0,8.330026627E0
3.006310019E0,8.445546627E-1,5.476736546E0,8.373122215E0
3.008320280E0,9.115923047E-1,5.481524944E0,8.397064209E0
3.010330540E0,9.546879530E-1,5.505466938E0,8.421006203E0
3.012340801E0,1.007360339E0,5.500678539E0,8.468890190E0
3.014351061E0,1.055244446E0,5.505466938E0,8.464101791E0
3.016361321E0,1.083974838E0,5.515043736E0,8.507197380E0
3.018371582E0,1.064821243E0,5.500678539E0,8.507197380E0
3.020381842E0,1.060032845E0,5.505466938E0,8.531139374E0
3.022392155E0,1.045667648E0,5.491101742E0,8.535927773E0
3.024402467E0,1.007360339E0,5.495890141E0,8.569446564E0
3.026412780E0,9.642647505E-1,5.467159748E0,8.579023361E0
3.028423092E0,9.451110959E-1,5.448006153E0,8.607753754E0
3.030433405E0,9.307458997E-1,5.409698963E0,8.598176956E0
3.032443717E0,8.972271085E-1,5.414487362E0,8.607753754E0
3.034454030E0,8.732850552E-1,5.385756493E0,8.612542152E0
3.036464342E0,8.301894665E-1,5.352237701E0,8.593388557E0
3.038474655E0,8.301894665E-1,5.333084106E0,8.588600159E0
3.040484967E0,7.870938182E-1,5.328295708E0,8.545504570E0
3.042495280E0,7.823054194E-1,5.313930511E0,8.531139374E0
3.044505592E0,7.392097712E-1,5.304353714E0,8.535927773E0
3.046515905E0,7.104793787E-1,5.289988518E0,8.497620583E0
3.048526217E0,6.913257241E-1,5.280411720E0,8.454524994E0
3.050536530E0,6.769605279E-1,5.285200119E0,8.435371399E0
3.052546842E0,6.386532784E-1,5.256469727E0,8.406641006E0
3.054557155E0,6.194996834E-1,5.256469727E0,8.358757019E0
3.056567467E0,5.859808922E-1,5.251681328E0,8.382699013E0
3.058577780E0,5.620388389E-1,5.232527733E0,8.358757019E0
3.060588092E0,5.189431906E-1,5.218162537E0,8.330026627E0
3.062598405E0,5.093663931E-1,5.213374138E0,8.310873032E0
3.064608717E0,4.854243994E-1,5.184643745E0,8.330026627E0
3.066619030E0,4.662707746E-1,5.175066948E0,8.315661430E0
3.068629342E0,4.375403523E-1,5.175066948E0,8.330026627E0
3.070639655E0,4.183867574E-1,5.175066948E0,8.349180222E0
3.072649967E0,4.231751561E-1,5.170278549E0,8.363545418E0
3.074660280E0,4.183867574E-1,5.170278549E0,8.373122215E0
3.076670592E0,4.088099301E-1,5.160701752E0,8.397064209E0
3.078680905E0,3.848679364E-1,5.170278549E0,8.421006203E0
3.080691217E0,3.609259129E-1,5.160701752E0,8.444948196E0
3.082701530E0,3.417722881E-1,5.165490150E0,8.440159798E0
3.084711842E0,3.417722881E-1,5.165490150E0,8.473678589E0
3.086722155E0,3.178302646E-1,5.194220543E0,8.492832184E0
3.088732467E0,2.843114436E-1,5.189432144E0,8.488043785E0
3.090742780E0,2.603694201E-1,5.189432144E0,8.526350975E0
3.092753092E0,2.316390127E-1,5.179855347E0,8.531139374E0
3.094763405E0,2.316390127E-1,5.199008942E0,8.550292969E0
3.096773717E0,2.029085904E-1,5.208585739E0,8.569446564E0
3.098784030E0,1.981201917E-1,5.203797340E0,8.593388557E0
3.100794290E0,1.933317930E-1,5.213374138E0,8.617330551E0
3.102804551E0,1.789665818E-1,5.208585739E0,8.631695747E0
3.104815384E0,1.837549806E-1,5.222950935E0,8.660426140E0
3.106825123E0,2.029085904E-1,5.218162537E0,8.674791336E0
3.108834863E0,2.268506140E-1,5.218162537E0,8.674791336E0
3.110844603E0,2.507926226E-1,5.222950935E0,8.713098526E0
3.112854394E0,2.507926226E-1,5.227739334E0,8.717886925E0
3.114864238E0,2.460042238E-1,5.237316132E0,8.713098526E0
3.116874134E0,2.412158251E-1,5.246892929E0,8.693944931E0
3.118884134E0,2.460042238E-1,5.266046524E0,8.693944931E0
3.120894238E0,2.268506140E-1,5.275623322E0,8.670002937E0
3.122904446E0,2.124854028E-1,5.275623322E0,8.641272545E0
3.124914759E0,2.029085904E-1,5.289988518E0,8.607753754E0
3.126925176E0,1.789665818E-1,5.323507309E0,8.607753754E0
3.128935696E0,1.885433793E-1,5.328295708E0,8.593388557E0
3.130946269E0,1.693897694E-1,5.376179695E0,8.569446564E0
3.132956894E0,1.598129570E-1,5.400122166E0,8.531139374E0
3.134967571E0,1.550245583E-1,5.424064159E0,8.511985779E0
3.136978248E0,1.454477459E-1,5.433640957E0,8.464101791E0
3.138988926E0,1.262941360E-1,5.443217754E0,8.411429405E0
3.140999603E0,1.071405262E-1,5.457582951E0,8.377910614E0
3.143010176E0,7.841010392E-2,5.452794552E0,8.358757019E0
3.145020488E0,7.362170517E-2,5.462371349E0,8.282142639E0
3.147030748E0,5.925649032E-2,5.462371349E0,8.253412247E0
3.149041009E0,4.489128292E-2,5.471948147E0,8.191162109E0
3.151051269E0,2.094926499E-2,5.462371349E0,8.157643318E0
3.153061530E0,3.052607179E-2,5.467159748E0,8.104970932E0
3.155071790E0,2.094926499E-2,5.486313343E0,8.061875343E0
3.157082051E0,2.094926499E-2,5.467159748E0,8.004414558E0
3.159092311E0,3.052607179E-2,5.510255337E0,7.970896244E0
3.161102571E0,1.616086066E-2,5.505466938E0,7.932588577E0
3.163112832E0,2.573766746E-2,5.519832134E0,7.913434982E0
3.165123092E0,2.573766746E-2,5.524620533E0,7.836820602E0
3.167133353E0,4.967968538E-2,5.534197330E0,7.779359818E0
3.169143613E0,3.052607179E-2,5.548562527E0,7.750629425E0
3.171153873E0,3.052607179E-2,5.558139324E0,7.697957039E0
3.173164134E0,4.010287672E-2,5.558139324E0,7.664438248E0
3.175174394E0,4.010287672E-2,5.610811710E0,7.654861450E0
3.177184655E0,5.446808785E-2,5.610811710E0,7.626131058E0
3.179194915E0,4.967968538E-2,5.606023312E0,7.621342659E0
3.181205176E0,8.798690885E-2,5.653907299E0,7.611765862E0
3.183215436E0,9.277531505E-2,5.644330502E0,7.626131058E0
3.185225696E0,1.119289324E-1,5.658695698E0,7.597400665E0
3.187235957E0,1.406593472E-1,5.668272495E0,7.578247070E0
3.189246217E0,1.598129570E-1,5.663484097E0,7.592612267E0
3.191256478E0,1.981201917E-1,5.653907299E0,7.587823868E0
3.193266738E0,2.172738016E-1,5.668272495E0,7.583035469E0
3.195276998E0,2.316390127E-1,5.649118900E0,7.587823868E0
3.197287259E0,2.507926226E-1,5.658695698E0,7.602189064E0
3.199297519E0,2.555810213E-1,5.658695698E0,7.573458672E0
3.201307780E0,2.555810213E-1,5.653907299E0,7.597400665E0
3.203318040E0,2.795230448E-1,5.682637691E0,7.616554260E0
3.205328301E0,2.843114436E-1,5.677849293E0,7.630919456E0
3.207338561E0,3.034650683E-1,5.673060894E0,7.650073051E0
3.209348821E0,2.938882709E-1,5.701791286E0,7.645284653E0
3.211359082E0,3.034650683E-1,5.711368084E0,7.678803444E0
3.213369342E0,3.130418658E-1,5.716156483E0,7.664438248E0
3.215379603E0,2.986766696E-1,5.716156483E0,7.654861450E0
3.217389863E0,2.986766696E-1,5.697002888E0,7.669226646E0
3.219400123E0,2.890998423E-1,5.711368084E0,7.650073051E0
3.221410384E0,2.938882709E-1,5.687426090E0,7.669226646E0
3.223420644E0,2.986766696E-1,5.682637691E0,7.683591843E0
3.225430905E0,2.986766696E-1,5.682637691E0,7.688380241E0
3.227441165E0,2.938882709E-1,5.687426090E0,7.712322235E0
3.229451426E0,3.226186931E-1,5.682637691E0,7.707533836E0
3.231461686E0,3.321954906E-1,5.682637691E0,7.702745438E0
3.233471946E0,3.513490856E-1,5.653907299E0,7.702745438E0
3.235482207E0,3.657143116E-1,5.653907299E0,7.707533836E0
3.237492467E0,3.848679364E-1,5.663484097E0,7.741052628E0
3.239502728E0,3.944447339E-1,5.649118900E0,7.736264229E0
3.241512988E0,4.135983288E-1,5.663484097E0,7.750629425E0
3.243523248E0,4.279635549E-1,5.668272495E0,7.769783020E0
3.245533509E0,4.519055784E-1,5.663484097E0,7.812878609E0
3.247543769E0,4.758476019E-1,5.677849293E0,7.860762596E0
3.249554030E0,4.902127981E-1,5.677849293E0,7.875127792E0
3.251564290E0,5.093663931E-1,5.673060894E0,7.927800179E0
3.253574551E0,5.141547918E-1,5.673060894E0,7.966107368E0
3.255584811E0,5.333084464E-1,5.658695698E0,7.975684643E0
3.257595071E0,5.333084464E-1,5.644330502E0,7.975684643E0
3.259605332E0,5.428852439E-1,5.615600109E0,7.994838238E0
3.261615592E0,5.428852439E-1,5.596446514E0,7.999626637E0
3.263625853E0,5.668272376E-1,5.582081318E0,8.013991356E0
3.265636113E0,5.476736426E-1,5.586869717E0,8.013991356E0
3.267646373E0,5.428852439E-1,5.577292919E0,8.047510147E0
3.269656634E0,5.476736426E-1,5.577292919E0,8.042721748E0
3.271666946E0,5.572504401E-1,5.577292919E0,8.057086945E0
3.273677259E0,5.572504401E-1,5.577292919E0,8.028356552E0
3.275687571E0,5.428852439E-1,5.562927723E0,8.028356552E0
3.277697884E0,5.428852439E-1,5.572504520E0,8.042721748E0
3.279708196E0,5.237316489E-1,5.562927723E0,8.047510147E0
3.281718509E0,5.189431906E-1,5.548562527E0,8.037933350E0
3.283728821E0,5.045779943E-1,5.534197330E0,8.028356552E0
3.285739134E0,4.710591733E-1,5.538985729E0,8.028356552E0
3.287749446E0,4.662707746E-1,5.524620533E0,7.994838238E0
3.289759759E0,4.471171796E-1,5.515043736E0,8.023568153E0
3.291770071E0,4.614823759E-1,5.500678539E0,8.023568153E0
3.293780384E0,4.519055784E-1,5.510255337E0,8.023568153E0
3.295790696E0,4.327519536E-1,5.510255337E0,8.018779755E0
3.297801009E0,4.135983288E-1,5.500678539E0,8.028356552E0
3.299811321E0,4.088099301E-1,5.529408932E0,8.004414558E0
3.301821634E0,3.800795078E-1,5.529408932E0,8.004414558E0
3.303831946E0,3.705027103E-1,5.538985729E0,8.004414558E0
3.305842259E0,3.657143116E-1,5.534197330E0,8.009202957E0
3.307852571E0,3.274070919E-1,5.562927723E0,7.994838238E0
3.309862884E0,3.130418658E-1,5.562927723E0,8.023568153E0
3.311873196E0,2.938882709E-1,5.548562527E0,8.028356552E0
3.313883509E0,2.986766696E-1,5.548562527E0,8.018779755E0
3.315893821E0,2.699462473E-1,5.548562527E0,8.037933350E0
3.317904134E0,2.507926226E-1,5.543774128E0,8.033144951E0
3.319914446E0,2.412158251E-1,5.538985729E0,8.033144951E0
3.321924759E0,2.220622003E-1,5.534197330E0,8.023568153E0
3.323935071E0,2.316390127E-1,5.515043736E0,8.013991356E0
3.325945384E0,2.268506140E-1,5.519832134E0,8.013991356E0
3.327955696E0,2.412158251E-1,5.476736546E0,8.009202957E0
3.329966009E0,2.603694201E-1,5.491101742E0,8.009202957E0
3.331976321E0,2.603694201E-1,5.481524944E0,8.004414558E0
3.333986634E0,2.699462473E-1,5.476736546E0,7.994838238E0
3.335996946E0,2.651578486E-1,5.476736546E0,7.970896244E0
3.338007259E0,2.795230448E-1,5.486313343E0,7.985261440E0
3.340017571E0,2.603694201E-1,5.495890141E0,7.985261440E0
3.342027884E0,2.699462473E-1,5.476736546E0,7.990049839E0
3.344038196E0,2.412158251E-1,5.515043736E0,8.009202957E0
3.346048509E0,2.507926226E-1,5.515043736E0,8.009202957E0
3.348058821E0,2.268506140E-1,5.538985729E0,8.052298546E0
3.350069134E0,2.172738016E-1,5.534197330E0,8.052298546E0
3.352079446E0,1.981201917E-1,5.553350925E0,8.037933350E0
3.354089759E0,1.646013707E-1,5.519832134E0,8.042721748E0
3.356100019E0,1.071405262E-1,5.519832134E0,8.037933350E0
3.358110280E0,-2.214636654E-2,5.462371349E0,7.994838238E0
3.360120540E0,-2.992752008E-3,5.471948147E0,7.994838238E0
3.362130801E0,1.119289324E-1,5.471948147E0,7.985261440E0
3.364141061E0,1.981201917E-1,5.500678539E0,8.009202957E0
3.366151321E0,3.178302646E-1,5.515043736E0,8.033144951E0
3.368161582E0,4.088099301E-1,5.534197330E0,8.042721748E0
3.370171842E0,4.710591733E-1,5.519832134E0,8.095394135E0
3.372182103E0,5.428852439E-1,5.529408932E0,8.100182533E0
3.374192363E0,5.859808922E-1,5.529408932E0,8.138489723E0
3.376202623E0,6.194996834E-1,5.524620533E0,8.124124527E0
3.378212884E0,6.386532784E-1,5.519832134E0,8.133701324E0
3.380223144E0,6.530185342E-1,5.529408932E0,8.143278122E0
3.382233405E0,6.194996834E-1,5.524620533E0,8.157643318E0
3.384243665E0,6.290764809E-1,5.524620533E0,8.167220116E0
3.386253926E0,6.051344872E-1,5.500678539E0,8.176796913E0
3.388264186E0,5.955576897E-1,5.529408932E0,8.191162109E0
3.390274446E0,5.524620414E-1,5.515043736E0,8.157643318E0
3.392284707E0,5.333084464E-1,5.515043736E0,8.167220116E0
3.394294967E0,5.093663931E-1,5.519832134E0,8.172008514E0
3.396305228E0,4.614823759E-1,5.534197330E0,8.157643318E0
3.398315488E0,4.519055784E-1,5.524620533E0,8.162431717E0
3.400325748E0,4.183867574E-1,5.534197330E0,8.195950508E0
3.402336009E0,3.944447339E-1,5.524620533E0,8.172008514E0
3.404346269E0,4.088099301E-1,5.538985729E0,8.176796913E0
3.406356530E0,4.040215313E-1,5.548562527E0,8.167220116E0
3.408366790E0,4.040215313E-1,5.562927723E0,8.152854919E0
3.410377051E0,3.992331326E-1,5.562927723E0,8.167220116E0
3.412387311E0,4.135983288E-1,5.586869717E0,8.152854919E0
3.414397571E0,4.231751561E-1,5.558139324E0,8.172008514E0
3.416407832E0,4.423287511E-1,5.562927723E0,8.152854919E0
3.418418092E0,4.471171796E-1,5.553350925E0,8.143278122E0
3.420428353E0,4.327519536E-1,5.543774128E0,8.143278122E0
3.422438613E0,4.375403523E-1,5.538985729E0,8.119336128E0
3.424448873E0,4.327519536E-1,5.524620533E0,8.090605736E0
3.426459134E0,4.183867574E-1,5.510255337E0,8.071452141E0
3.428469394E0,4.183867574E-1,5.505466938E0,8.081028938E0
3.430479655E0,4.327519536E-1,5.491101742E0,8.047510147E0
3.432489915E0,4.519055784E-1,5.476736546E0,8.057086945E0
3.434500176E0,4.471171796E-1,5.452794552E0,8.057086945E0
3.436510436E0,4.519055784E-1,5.438429356E0,8.071452141E0
3.438520696E0,4.662707746E-1,5.452794552E0,8.042721748E0
3.440530957E0,4.902127981E-1,5.448006153E0,8.037933350E0
3.442541217E0,4.806360006E-1,5.443217754E0,8.085817337E0
3.444551478E0,4.902127981E-1,5.424064159E0,8.071452141E0
3.446561738E0,4.854243994E-1,5.419275761E0,8.081028938E0
3.448571998E0,4.854243994E-1,5.428852558E0,8.095394135E0
3.450582259E0,4.758476019E-1,5.414487362E0,8.095394135E0
3.452592519E0,4.614823759E-1,5.419275761E0,8.095394135E0
3.454602780E0,4.614823759E-1,5.419275761E0,8.114547729E0
3.456613040E0,4.614823759E-1,5.433640957E0,8.119336128E0
3.458623301E0,4.375403523E-1,5.452794552E0,8.124124527E0
3.460633561E0,4.040215313E-1,5.471948147E0,8.167220116E0
3.462643821E0,3.944447339E-1,5.486313343E0,8.215105057E0
3.464654082E0,3.800795078E-1,5.524620533E0,8.267777443E0
3.466664342E0,3.561375141E-1,5.529408932E0,8.286931038E0
3.468674603E0,3.082534671E-1,5.529408932E0,8.334815025E0
3.470684863E0,2.172738016E-1,5.467159748E0,8.368333817E0
3.472695176E0,6.584054790E-3,5.404910564E0,8.353968620E0
3.474705488E0,-7.781155407E-3,5.390544891E0,8.363545418E0
3.476715801E0,1.023521200E-1,5.443217754E0,8.416217804E0
3.478726113E0,2.172738016E-1,5.457582951E0,8.440159798E0
3.480736426E0,3.178302646E-1,5.495890141E0,8.464101791E0
3.482746738E0,4.040215313E-1,5.500678539E0,8.483255386E0
3.484757051E0,4.375403523E-1,5.495890141E0,8.492832184E0
3.486767363E0,4.566939771E-1,5.515043736E0,8.483255386E0
3.488777676E0,4.040215313E-1,5.495890141E0,8.483255386E0
3.490787988E0,4.471171796E-1,5.491101742E0,8.545504570E0
3.492798301E0,5.285200477E-1,5.495890141E0,8.564658165E0
3.494808613E0,5.428852439E-1,5.457582951E0,8.593388557E0
3.496818926E0,5.668272376E-1,5.462371349E0,8.607753754E0
3.498829238E0,5.716156363E-1,5.428852558E0,8.602965355E0
3.500839551E0,5.428852439E-1,5.395333767E0,8.617330551E0
3.502849863E0,5.141547918E-1,5.385756493E0,8.612542152E0
3.504860176E0,5.333084464E-1,5.400122166E0,8.602965355E0
3.506870488E0,5.476736426E-1,5.404910564E0,8.617330551E0
3.508880801E0,5.476736426E-1,5.414487362E0,8.617330551E0
3.510891113E0,5.237316489E-1,5.395333767E0,8.593388557E0
3.512901426E0,4.758476019E-1,5.380968094E0,8.559869766E0
3.514911738E0,4.519055784E-1,5.385756493E0,8.526350975E0
3.516922051E0,4.519055784E-1,5.424064159E0,8.492832184E0
3.518932363E0,4.902127981E-1,5.457582951E0,8.468890190E0
3.520942676E0,5.045779943E-1,5.486313343E0,8.444948196E0
3.522952988E0,5.189431906E-1,5.495890141E0,8.397064209E0
3.524963301E0,4.806360006E-1,5.495890141E0,8.368333817E0
3.526973613E0,4.088099301E-1,5.476736546E0,8.349180222E0
3.528983926E0,3.848679364E-1,5.486313343E0,8.306084633E0
3.530994238E0,4.423287511E-1,5.500678539E0,8.277354240E0
3.533004551E0,5.093663931E-1,5.538985729E0,8.282142639E0
3.535014863E0,5.476736426E-1,5.548562527E0,8.243835449E0
3.537025176E0,6.194996834E-1,5.582081318E0,8.239047050E0
3.539035488E0,6.386532784E-1,5.562927723E0,8.205527306E0
3.541045801E0,6.578069329E-1,5.553350925E0,8.181585312E0
3.543056113E0,6.147112846E-1,5.548562527E0,8.133701324E0
3.545066426E0,5.907692909E-1,5.510255337E0,8.109759331E0
3.547076738E0,5.428852439E-1,5.500678539E0,8.057086945E0
3.549087051E0,5.045779943E-1,5.476736546E0,8.013991356E0
3.551097363E0,4.423287511E-1,5.471948147E0,7.970896244E0
3.553107676E0,3.944447339E-1,5.467159748E0,7.923011780E0
3.555117988E0,3.513490856E-1,5.467159748E0,7.918223381E0
3.557128301E0,2.795230448E-1,5.438429356E0,7.903858185E0
3.559138561E0,1.358709484E-1,5.371391296E0,7.846397400E0
3.561148821E0,6.584054790E-3,5.318718910E0,7.808090210E0
3.563159082E0,7.841010392E-2,5.342660904E0,7.808090210E0
3.565169342E0,2.268506140E-1,5.400122166E0,7.851185799E0
3.567179603E0,3.657143116E-1,5.438429356E0,7.875127792E0
3.569189863E0,4.471171796E-1,5.467159748E0,7.827243805E0
3.571200123E0,5.045779943E-1,5.438429356E0,7.832032204E0
3.573210384E0,5.428852439E-1,5.467159748E0,7.822455406E0
3.575220644E0,5.668272376E-1,5.462371349E0,7.812878609E0
3.577230905E0,6.147112846E-1,5.462371349E0,7.803301811E0
3.579241165E0,6.242880821E-1,5.467159748E0,7.827243805E0
3.581251426E0,6.290764809E-1,5.500678539E0,7.851185799E0
3.583261686E0,6.242880821E-1,5.500678539E0,7.899069786E0
3.585271946E0,5.764040351E-1,5.500678539E0,7.961318970E0
3.587282207E0,5.045779943E-1,5.481524944E0,7.966107368E0
3.589292467E0,4.902127981E-1,5.491101742E0,8.018779755E0
3.591302728E0,4.519055784E-1,5.491101742E0,8.081028938E0
3.593312988E0,4.231751561E-1,5.505466938E0,8.119336128E0
3.595323248E0,3.561375141E-1,5.505466938E0,8.143278122E0
3.597333509E0,3.082534671E-1,5.495890141E0,8.152854919E0
3.599343769E0,3.082534671E-1,5.505466938E0,8.210315704E0
3.601354030E0,3.321954906E-1,5.500678539E0,8.253412247E0
3.603364290E0,3.465606868E-1,5.505466938E0,8.286931038E0
3.605371009E0,3.705027103E-1,5.495890141E0,8.286931038E0
3.607377728E0,3.944447339E-1,5.486313343E0,8.296507835E0
3.609384863E0,4.327519536E-1,5.452794552E0,8.306084633E0
3.611392519E0,4.950011969E-1,5.438429356E0,8.315661430E0
3.613400801E0,5.380968451E-1,5.428852558E0,8.339603424E0
3.615409759E0,5.907692909E-1,5.380968094E0,8.353968620E0
3.617419394E0,6.290764809E-1,5.366602898E0,8.373122215E0
3.619429707E0,6.242880821E-1,5.390544891E0,8.377910614E0
3.621440696E0,6.769605279E-1,5.390544891E0,8.421006203E0
3.623452311E0,7.200561762E-1,5.380968094E0,8.421006203E0
3.625464446E0,7.009025216E-1,5.385756493E0,8.392275810E0
3.627476998E0,7.009025216E-1,5.352237701E0,8.344391823E0
3.629489863E0,7.344213724E-1,5.371391296E0,8.325238228E0
3.631502936E0,7.344213724E-1,5.366602898E0,8.296507835E0
3.633516113E0,7.152677774E-1,5.366602898E0,8.253412247E0
3.635529290E0,7.009025216E-1,5.371391296E0,8.224681854E0
3.637539603E0,6.961141229E-1,5.347449303E0,8.181585312E0
3.639549915E0,6.530185342E-1,5.357026100E0,8.181585312E0
3.641560176E0,6.482301354E-1,5.337872505E0,8.167220116E0
3.643570436E0,6.625953317E-1,5.347449303E0,8.138489723E0
3.645580696E0,6.625953317E-1,5.333084106E0,8.138489723E0
3.647590957E0,6.865373254E-1,5.333084106E0,8.124124527E0
3.649601217E0,6.625953317E-1,5.318718910E0,8.095394135E0
3.651611478E0,6.578069329E-1,5.299565315E0,8.085817337E0
3.653621738E0,6.242880821E-1,5.261258125E0,8.066663742E0
3.655631998E0,6.386532784E-1,5.246892929E0,8.066663742E0
3.657642259E0,6.434416771E-1,5.227739334E0,8.052298546E0
3.659652519E0,6.625953317E-1,5.246892929E0,8.066663742E0
3.661662780E0,6.865373254E-1,5.227739334E0,8.076240540E0
3.663673040E0,6.769605279E-1,5.218162537E0,8.085817337E0
3.665683301E0,6.386532784E-1,5.203797340E0,8.085817337E0
3.667693561E0,5.811924338E-1,5.165490150E0,8.081028938E0
3.669703821E0,5.285200477E-1,5.136759758E0,8.061875343E0
3.671714082E0,5.859808922E-1,5.151124954E0,8.133701324E0
3.673724342E0,6.386532784E-1,5.179855347E0,8.138489723E0
3.675734603E0,6.769605279E-1,5.213374138E0,8.162431717E0
3.677744863E0,6.913257241E-1,5.251681328E0,8.181585312E0
3.679755123E0,7.200561762E-1,5.289988518E0,8.181585312E0
3.681765384E0,7.056909800E-1,5.289988518E0,8.191162109E0
3.683775644E0,6.961141229E-1,5.309142113E0,8.224681854E0
3.685785905E0,6.578069329E-1,5.289988518E0,8.215105057E0
3.687796165E0,6.051344872E-1,5.289988518E0,8.219893456E0
3.689806426E0,5.189431906E-1,5.275623322E0,8.215105057E0
3.691816686E0,4.327519536E-1,5.227739334E0,8.210315704E0
3.693826946E0,3.513490856E-1,5.175066948E0,8.215105057E0
3.695837207E0,3.226186931E-1,5.155913353E0,8.224681854E0
3.697847467E0,3.752911091E-1,5.165490150E0,8.291719437E0
3.699857728E0,4.279635549E-1,5.199008942E0,8.339603424E0
3.701867988E0,4.997895956E-1,5.242104530E0,8.363545418E0
3.703878248E0,5.333084464E-1,5.270834923E0,8.377910614E0
3.705888509E0,5.572504401E-1,5.318718910E0,8.387487411E0
3.707898769E0,5.476736426E-1,5.337872505E0,8.425794601E0
3.709909030E0,5.045779943E-1,5.337872505E0,8.483255386E0
3.711919290E0,4.279635549E-1,5.347449303E0,8.516774178E0
3.713929551E0,3.226186931E-1,5.342660904E0,8.531139374E0
3.715939811E0,1.933317930E-1,5.309142113E0,8.535927773E0
3.717950071E0,8.319851011E-2,5.261258125E0,8.535927773E0
3.719960332E0,9.277531505E-2,5.227739334E0,8.583811760E0
3.721970592E0,1.454477459E-1,5.237316132E0,8.670002937E0
3.723980853E0,2.268506140E-1,5.294776917E0,8.727463722E0
3.725991113E0,3.082534671E-1,5.328295708E0,8.737040520E0
3.728001373E0,3.896563351E-1,5.342660904E0,8.756194115E0
3.730011634E0,4.279635549E-1,5.357026100E0,8.756194115E0
3.732021894E0,4.519055784E-1,5.357026100E0,8.756194115E0
3.734032155E0,4.279635549E-1,5.342660904E0,8.770559311E0
3.736042415E0,3.705027103E-1,5.328295708E0,8.775347710E0
3.738052676E0,3.034650683E-1,5.289988518E0,8.737040520E0
3.740062936E0,2.076970041E-1,5.261258125E0,8.737040520E0
3.742073196E0,1.358709484E-1,5.222950935E0,8.689156532E0
3.744083457E0,1.837549806E-1,5.189432144E0,8.674791336E0
3.746093717E0,2.364274114E-1,5.189432144E0,8.722675323E0
3.748103978E0,2.699462473E-1,5.203797340E0,8.741828918E0
3.750114238E0,3.130418658E-1,5.246892929E0,8.765770912E0
3.752124551E0,3.609259129E-1,5.289988518E0,8.751405716E0
3.754134863E0,3.944447339E-1,5.309142113E0,8.751405716E0
3.756145176E0,3.992331326E-1,5.337872505E0,8.732252121E0
3.758155488E0,4.040215313E-1,5.376179695E0,8.732252121E0
3.760165801E0,3.513490856E-1,5.380968094E0,8.722675323E0
3.762176113E0,3.034650683E-1,5.371391296E0,8.679579735E0
3.764186426E0,2.412158251E-1,5.337872505E0,8.655637741E0
3.766196738E0,1.598129570E-1,5.333084106E0,8.617330551E0
3.768207051E0,1.406593472E-1,5.299565315E0,8.598176956E0
3.770217363E0,1.981201917E-1,5.275623322E0,8.583811760E0
3.772227676E0,2.747346461E-1,5.270834923E0,8.612542152E0
3.774237988E0,3.705027103E-1,5.289988518E0,8.617330551E0
3.776248301E0,4.471171796E-1,5.294776917E0,8.617330551E0
3.778258613E0,5.141547918E-1,5.313930511E0,8.574234962E0
3.780268926E0,5.572504401E-1,5.299565315E0,8.564658165E0
3.782279238E0,5.668272376E-1,5.294776917E0,8.559869766E0
3.784289551E0,5.524620414E-1,5.275623322E0,8.535927773E0
3.786299863E0,5.380968451E-1,5.251681328E0,8.507197380E0
3.788310176E0,4.950011969E-1,5.242104530E0,8.492832184E0
3.790320488E0,4.758476019E-1,5.251681328E0,8.478466988E0
3.792330801E0,4.519055784E-1,5.237316132E0,8.444948196E0
3.794341113E0,4.566939771E-1,5.227739334E0,8.435371399E0
3.796351426E0,4.614823759E-1,5.237316132E0,8.397064209E0
3.798361738E0,4.519055784E-1,5.251681328E0,8.397064209E0
3.800372051E0,4.710591733E-1,5.251681328E0,8.377910614E0
3.802382363E0,4.758476019E-1,5.261258125E0,8.344391823E0
3.804392676E0,4.902127981E-1,5.256469727E0,8.330026627E0
3.806402988E0,5.189431906E-1,5.246892929E0,8.320449829E0
3.808413301E0,5.333084464E-1,5.261258125E0,8.301296234E0
3.810423613E0,5.476736426E-1,5.227739334E0,8.267777443E0
3.812433926E0,5.764040351E-1,5.242104530E0,8.239047050E0
3.814444238E0,5.907692909E-1,5.242104530E0,8.243835449E0
3.816454551E0,6.242880821E-1,5.242104530E0,8.219893456E0
3.818464863E0,6.242880821E-1,5.251681328E0,8.186373711E0
3.820475176E0,6.482301354E-1,5.270834923E0,8.152854919E0
3.822485488E0,6.578069329E-1,5.251681328E0,8.124124527E0
3.824495801E0,6.482301354E-1,5.270834923E0,8.100182533E0
3.826506113E0,6.338648796E-1,5.275623322E0,8.066663742E0
3.828516426E0,6.194996834E-1,5.275623322E0,8.061875343E0
3.830526738E0,5.716156363E-1,5.266046524E0,8.023568153E0
3.832537051E0,5.620388389E-1,5.299565315E0,7.999626637E0
3.834547363E0,5.476736426E-1,5.304353714E0,7.990049839E0
3.836557676E0,5.285200477E-1,5.309142113E0,7.956530571E0
3.838567988E0,5.333084464E-1,5.309142113E0,7.961318970E0
3.840578301E0,5.524620414E-1,5.337872505E0,7.975684643E0
3.842588561E0,5.333084464E-1,5.323507309E0,7.985261440E0
3.844598821E0,5.524620414E-1,5.328295708E0,7.990049839E0
3.846609082E0,5.572504401E-1,5.304353714E0,7.999626637E0
3.848619342E0,5.524620414E-1,5.309142113E0,8.004414558E0
3.850629603E0,5.716156363E-1,5.285200119E0,8.033144951E0
3.852639863E0,5.668272376E-1,5.285200119E0,8.033144951E0
3.854650123E0,5.668272376E-1,5.285200119E0,8.037933350E0
3.856660384E0,5.428852439E-1,5.289988518E0,8.047510147E0
3.858670644E0,5.380968451E-1,5.304353714E0,8.033144951E0
3.860680905E0,5.237316489E-1,5.289988518E0,8.047510147E0
3.862691165E0,5.428852439E-1,5.318718910E0,8.037933350E0
3.864701426E0,5.380968451E-1,5.347449303E0,8.023568153E0
3.866711686E0,5.524620414E-1,5.333084106E0,8.042721748E0
3.868721946E0,5.811924338E-1,5.357026100E0,8.042721748E0
3.870732207E0,5.716156363E-1,5.352237701E0,8.033144951E0
3.872742467E0,5.811924338E-1,5.347449303E0,8.023568153E0
3.874752728E0,6.003460884E-1,5.342660904E0,7.994838238E0
3.876762988E0,6.003460884E-1,5.342660904E0,8.009202957E0
3.878773248E0,6.099228859E-1,5.309142113E0,8.009202957E0
3.880783509E0,6.338648796E-1,5.318718910E0,7.999626637E0
3.882793769E0,6.530185342E-1,5.313930511E0,7.990049839E0
3.884804030E0,6.817489266E-1,5.304353714E0,7.980473042E0
3.886814290E0,7.104793787E-1,5.289988518E0,7.970896244E0
3.888824551E0,7.152677774E-1,5.251681328E0,7.946953773E0
3.890834811E0,7.392097712E-1,5.251681328E0,7.918223381E0
3.892845071E0,7.392097712E-1,5.256469727E0,7.889492989E0
3.894855332E0,7.535749674E-1,5.242104530E0,7.875127792E0
3.896865592E0,7.535749674E-1,5.208585739E0,7.836820602E0
3.898875853E0,7.775170207E-1,5.213374138E0,7.836820602E0
3.900886113E0,7.679402232E-1,5.213374138E0,7.822455406E0
3.902896373E0,7.918822169E-1,5.203797340E0,7.784148216E0
3.904906634E0,7.870938182E-1,5.222950935E0,7.774571419E0
3.906916894E0,7.966706157E-1,5.175066948E0,7.736264229E0
3.908927155E0,8.014590144E-1,5.194220543E0,7.736264229E0
3.910937415E0,8.014590144E-1,5.155913353E0,7.717110634E0
3.912947676E0,7.966706157E-1,5.160701752E0,7.688380241E0
3.914957936E0,8.349778652E-1,5.155913353E0,7.664438248E0
3.916968196E0,8.589198589E-1,5.151124954E0,7.669226646E0
3.918978457E0,8.637082577E-1,5.141548157E0,7.640496254E0
3.920988717E0,8.780734539E-1,5.146336555E0,7.611765862E0
3.922998978E0,8.972271085E-1,5.131971359E0,7.606977463E0
3.925009238E0,8.924387097E-1,5.136759758E0,7.606977463E0
3.927019498E0,8.684966564E-1,5.170278549E0,7.621342659E0
3.929029759E0,8.493430614E-1,5.170278549E0,7.678803444E0
3.931040019E0,8.110358119E-1,5.184643745E0,7.721899033E0
3.933050280E0,7.823054194E-1,5.160701752E0,7.755417824E0
3.935060540E0,7.679402232E-1,5.074510574E0,7.793725014E0
3.937070801E0,7.583633661E-1,5.007472992E0,7.817667007E0
3.939081061E0,7.631517649E-1,4.978742599E0,7.808090210E0
3.941091321E0,7.823054194E-1,4.926070213E0,7.827243805E0
3.943101582E0,7.870938182E-1,4.926070213E0,7.827243805E0
3.945111842E0,7.870938182E-1,4.849455357E0,7.822455406E0
3.947122155E0,7.918822169E-1,4.854243755E0,7.817667007E0
3.949132467E0,7.727286220E-1,4.892550945E0,7.846397400E0
3.951142780E0,7.631517649E-1,4.950012207E0,7.884704590E0
3.953153092E0,7.392097712E-1,4.997896194E0,7.951742172E0
3.955163405E0,7.200561762E-1,5.060145378E0,8.018779755E0
3.957173717E0,7.009025216E-1,5.122394562E0,8.081028938E0
3.959184030E0,7.152677774E-1,5.213374138E0,8.172008514E0
3.961194342E0,7.152677774E-1,5.270834923E0,8.229470253E0
3.963204655E0,7.344213724E-1,5.294776917E0,8.320449829E0
3.965214967E0,7.200561762E-1,5.270834923E0,8.377910614E0
3.967225280E0,7.200561762E-1,5.237316132E0,8.406641006E0
3.969235592E0,7.056909800E-1,5.189432144E0,8.468890190E0
3.971245905E0,7.009025216E-1,5.117606163E0,8.502408981E0
3.973256217E0,6.961141229E-1,5.050568581E0,8.550292969E0
3.975266530E0,6.961141229E-1,5.021838188E0,8.626907349E0
3.977276842E0,6.865373254E-1,4.973954201E0,8.693944931E0
3.979287155E0,7.056909800E-1,4.930858612E0,8.722675323E0
3.981297467E0,7.248445749E-1,4.887762547E0,8.808866501E0
3.983307780E0,7.487865686E-1,4.830301762E0,8.837596893E0
3.985318092E0,7.631517649E-1,4.791994572E0,8.866327286E0
3.987328405E0,7.679402232E-1,4.777629375E0,8.880692482E0
3.989338717E0,7.631517649E-1,4.748898983E0,8.895057678E0
3.991349030E0,7.631517649E-1,4.739322186E0,8.976460457E0
3.993359342E0,7.679402232E-1,4.729745388E0,9.005190849E0
3.995369655E0,8.158242106E-1,4.753687382E0,9.062651634E0
3.997379967E0,8.445546627E-1,4.806359768E0,9.081805229E0
3.999390280E0,8.301894665E-1,4.854243755E0,9.129689217E0
4.001400592E0,8.206126094E-1,4.911705017E0,9.167996407E0
4.003410905E0,8.206126094E-1,4.959589005E0,9.182361603E0
4.005421217E0,8.206126094E-1,4.983530998E0,9.191938400E0
4.007431530E0,7.918822169E-1,5.026626587E0,9.201516151E0
4.009441842E0,7.823054194E-1,5.036203384E0,9.215881348E0
4.011452155E0,7.870938182E-1,4.959589005E0,9.187150002E0
4.013462467E0,7.966706157E-1,4.964377403E0,9.196727753E0
4.015472780E0,7.679402232E-1,4.959589005E0,9.153631210E0
4.017483092E0,7.679402232E-1,4.978742599E0,9.144054413E0
4.019493405E0,7.392097712E-1,4.950012207E0,9.081805229E0
4.021503717E0,7.392097712E-1,4.940435410E0,9.057863235E0
4.023514030E0,7.296329737E-1,4.926070213E0,9.067440033E0
4.025524342E0,7.200561762E-1,4.911705017E0,9.077016830E0
4.027534655E0,7.200561762E-1,4.892550945E0,9.105747223E0
4.029544967E0,7.056909800E-1,4.854243755E0,9.120112419E0
4.031555280E0,7.056909800E-1,4.811148167E0,9.153631210E0
4.033565592E0,7.009025216E-1,4.772840977E0,9.148842812E0
4.035575905E0,6.961141229E-1,4.739322186E0,9.144054413E0
4.037586217E0,6.961141229E-1,4.710591793E0,9.139266014E0
4.039596530E0,6.865373254E-1,4.696226597E0,9.100958824E0
4.041606790E0,6.817489266E-1,4.681861401E0,9.077016830E0
4.043617051E0,6.673837304E-1,4.672284603E0,9.038709641E0
4.045627311E0,6.338648796E-1,4.624400616E0,9.048286438E0
4.047637571E0,6.051344872E-1,4.629189014E0,9.005190849E0
4.049647832E0,5.620388389E-1,4.610035419E0,9.014767647E0
4.051658092E0,4.997895956E-1,4.566939831E0,8.966883659E0
4.053668353E0,4.327519536E-1,4.571728230E0,8.899846077E0
4.055678613E0,3.513490856E-1,4.633977413E0,8.866327286E0
4.057688873E0,2.986766696E-1,4.715380192E0,8.880692482E0
4.059699134E0,2.699462473E-1,4.787206173E0,8.899846077E0
4.061709394E0,2.507926226E-1,4.859032154E0,8.923788071E0
4.063719655E0,2.890998423E-1,4.897339344E0,8.909422874E0
4.065729915E0,2.986766696E-1,4.954800606E0,8.895057678E0
4.067740176E0,3.178302646E-1,4.969165802E0,8.899846077E0
4.069750436E0,3.274070919E-1,4.959589005E0,8.861538887E0
4.071760696E0,3.417722881E-1,4.950012207E0,8.832808495E0
4.073770957E0,3.417722881E-1,4.950012207E0,8.780136108E0
4.075781217E0,3.465606868E-1,4.921281815E0,8.741828918E0
4.077791478E0,3.465606868E-1,4.906916618E0,8.713098526E0
4.079801738E0,3.752911091E-1,4.873397350E0,8.655637741E0
4.081811998E0,3.896563351E-1,4.859032154E0,8.593388557E0
4.083822259E0,4.183867574E-1,4.849455357E0,8.550292969E0
4.085832519E0,4.279635549E-1,4.859032154E0,8.468890190E0
4.087842780E0,4.183867574E-1,4.835090160E0,8.444948196E0
4.089853040E0,4.566939771E-1,4.830301762E0,8.397064209E0
4.091863301E0,4.519055784E-1,4.835090160E0,8.358757019E0
4.093873561E0,4.519055784E-1,4.815936565E0,8.363545418E0
4.095883821E0,4.423287511E-1,4.854243755E0,8.358757019E0
4.097894082E0,4.710591733E-1,4.873397350E0,8.339603424E0
4.099904342E0,4.902127981E-1,4.906916618E0,8.334815025E0
4.101914603E0,5.093663931E-1,4.906916618E0,8.315661430E0
4.103924863E0,5.333084464E-1,4.940435410E0,8.277354240E0
4.105935123E0,5.572504401E-1,4.954800606E0,8.253412247E0
4.107941998E0,5.955576897E-1,4.954800606E0,8.219893456E0
4.109948873E0,6.099228859E-1,4.930858612E0,8.152854919E0
4.111956165E0,6.338648796E-1,4.926070213E0,8.104970932E0
4.113963978E0,6.769605279E-1,4.906916618E0,8.057086945E0
4.115972363E0,7.152677774E-1,4.897339344E0,8.023568153E0
4.117981373E0,7.439981699E-1,4.902127743E0,7.956530571E0
4.119991061E0,7.727286220E-1,4.882974148E0,7.903858185E0
4.122001426E0,8.062474132E-1,4.854243755E0,7.851185799E0
4.124012415E0,8.301894665E-1,4.844666958E0,7.784148216E0
4.126023978E0,8.732850552E-1,4.811148167E0,7.736264229E0
4.128036061E0,8.924387097E-1,4.777629375E0,7.669226646E0
4.130048561E0,9.068039060E-1,4.734533787E0,7.630919456E0
4.132061373E0,9.163807034E-1,4.720168591E0,7.563881874E0
4.134074394E0,9.259575009E-1,4.710591793E0,7.520786285E0
4.136087519E0,9.498994946E-1,4.720168591E0,7.463325024E0
4.138100488E0,9.690531492E-1,4.691438198E0,7.357980251E0
4.140110801E0,1.002571940E0,4.638765812E0,7.252635479E0
4.142121061E0,1.045667648E0,4.586093426E0,7.156867504E0
4.144131321E0,1.069609642E0,4.547786236E0,7.123348713E0
4.146141582E0,1.117493629E0,4.533421040E0,7.132925510E0
4.148151842E0,1.170166135E0,4.528632641E0,7.185597897E0
4.150162103E0,1.198896527E0,4.514267445E0,7.257423878E0
4.152172363E0,1.198896527E0,4.509479046E0,7.353191853E0
4.154182623E0,1.170166135E0,4.495113850E0,7.410652637E0
4.156192884E0,1.151012421E0,4.514267445E0,7.487267494E0
4.158203144E0,1.117493629E0,4.538209438E0,7.520786285E0
4.160213405E0,1.064821243E0,4.542997837E0,7.583035469E0
4.162223665E0,1.016937137E0,4.538209438E0,7.568670273E0
4.164233926E0,9.786299467E-1,4.509479046E0,7.530363083E0
4.166244186E0,9.834183455E-1,4.475960255E0,7.482479095E0
4.168254446E0,9.977835417E-1,4.428076267E0,7.439383030E0
4.170264707E0,1.021725535E0,4.394556999E0,7.425017834E0
4.172274967E0,1.069609642E0,4.375403404E0,7.420229435E0
4.174285228E0,1.122282028E0,4.303577423E0,7.439383030E0
4.176295488E0,1.165377736E0,4.274847031E0,7.506421089E0
4.178305748E0,1.179742932E0,4.246116638E0,7.515997887E0
4.180316009E0,1.198896527E0,4.217386246E0,7.563881874E0
4.182326269E0,1.203684926E0,4.183867455E0,7.554305077E0
4.184336530E0,1.198896527E0,4.150348663E0,7.573458672E0
4.186346790E0,1.189319730E0,4.112041473E0,7.573458672E0
4.188357051E0,1.165377736E0,4.068945885E0,7.530363083E0
4.190367311E0,1.112705231E0,4.025850296E0,7.496844292E0
4.192377571E0,1.088763237E0,4.025850296E0,7.472901821E0
4.194387832E0,1.050456047E0,4.035427094E0,7.492055893E0
4.196398092E0,9.929951429E-1,4.016273499E0,7.439383030E0
4.198408353E0,9.020155072E-1,3.977966070E0,7.338826656E0
4.200418613E0,8.158242106E-1,4.006696701E0,7.209539890E0
4.202428873E0,7.823054194E-1,4.073734283E0,7.128137112E0
4.204439134E0,8.301894665E-1,4.212597847E0,7.118560314E0
4.206449394E0,9.115923047E-1,4.346673012E0,7.171232700E0
4.208459655E0,1.002571940E0,4.471171856E0,7.271789074E0
4.210469915E0,1.074398041E0,4.523844242E0,7.362768650E0
4.212480176E0,9.690531492E-1,4.533421040E0,7.300519466E0
4.214490436E0,9.355342984E-1,4.547786236E0,7.295731068E0
4.216500696E0,9.403226972E-1,4.523844242E0,7.401075840E0
4.218510957E0,9.355342984E-1,4.480748653E0,7.501632690E0
4.220521217E0,9.020155072E-1,4.432864666E0,7.559093475E0
4.222531478E0,8.828618526E-1,4.394556999E0,7.626131058E0
4.224541738E0,8.924387097E-1,4.337096214E0,7.712322235E0
4.226551998E0,9.020155072E-1,4.279635429E0,7.788936615E0
4.228562259E0,9.115923047E-1,4.207809448E0,7.827243805E0
4.230572519E0,9.451110959E-1,4.131195068E0,7.879916191E0
4.232582780E0,9.307458997E-1,4.054580688E0,7.860762596E0
4.234593040E0,9.738415480E-1,3.968389273E0,7.855974197E0
4.236603301E0,9.451110959E-1,3.915716887E0,7.841609001E0
4.238613561E0,9.259575009E-1,3.882198095E0,7.822455406E0
4.240623821E0,9.020155072E-1,3.863044500E0,7.817667007E0
4.242634134E0,8.541314602E-1,3.863044500E0,7.841609001E0
4.244644446E0,8.301894665E-1,3.863044500E0,7.803301811E0
4.246654759E0,7.918822169E-1,3.863044500E0,7.798513412E0
4.248665071E0,7.535749674E-1,3.906140089E0,7.760206223E0
4.250675384E0,6.434416771E-1,4.102464676E0,7.190386295E0
4.252685696E0,6.194996834E-1,4.078522682E0,7.381922245E0
4.254696009E0,5.811924338E-1,4.059369087E0,7.693168640E0
4.256706321E0,5.811924338E-1,4.025850296E0,8.057086945E0
4.258716634E0,5.476736426E-1,3.920505285E0,8.526350975E0
4.260726946E0,5.237316489E-1,3.901351690E0,8.890269279E0
4.262737259E0,5.045779943E-1,3.863044500E0,9.311649323E0
4.264747571E0,4.519055784E-1,3.858256102E0,9.512762070E0
4.266757884E0,3.657143116E-1,3.882198095E0,9.699509621E0
4.268768196E0,2.699462473E-1,3.891774893E0,9.776124001E0
4.270778509E0,2.460042238E-1,3.891774893E0,9.766547203E0
4.272788821E0,2.555810213E-1,3.877409697E0,9.891045570E0
4.274799134E0,3.657143116E-1,3.997119665E0,9.867103577E0
4.276809446E0,2.364274114E-1,3.920505285E0,9.814431190E0
4.278819759E0,1.119289324E-1,3.915716887E0,9.776124001E0
4.280830071E0,3.052607179E-2,3.915716887E0,9.776124001E0
4.282840384E0,-6.524199992E-2,3.843890905E0,9.814431190E0
4.284850696E0,-8.918401599E-2,3.834314108E0,9.934141159E0
4.286861009E0,-1.466448605E-1,3.781641483E0,1.000596714E1
4.288871321E0,-1.657984704E-1,3.762487888E0,1.001554394E1
4.290881634E0,-1.993172914E-1,3.728969097E0,1.003469753E1
4.292891946E0,-2.232593149E-1,3.661931515E0,1.002033234E1
4.294902259E0,-2.663549483E-1,3.594893932E0,9.977236748E0
4.296912571E0,-2.376245260E-1,3.537432909E0,9.914987564E0
4.298922884E0,-1.753752679E-1,3.456030130E0,9.982025146E0
4.300933196E0,-7.960720360E-2,3.403357744E0,1.006821632E1
4.302943509E0,2.094926499E-2,3.355473757E0,1.009215832E1
4.304953821E0,1.310825497E-1,3.321954966E0,1.015919590E1
4.306964134E0,2.364274114E-1,3.312378168E0,1.013046551E1
4.308974446E0,3.321954906E-1,3.264493942E0,1.011131191E1
4.310984759E0,4.279635549E-1,3.221398354E0,1.004427433E1
4.312995071E0,4.758476019E-1,3.163937569E0,1.005385113E1
4.315005384E0,5.668272376E-1,3.092111588E0,1.006821632E1
4.317015696E0,6.194996834E-1,3.029862165E0,1.011610031E1
4.319026009E0,6.625953317E-1,2.962824583E0,1.014004230E1
4.321036321E0,7.104793787E-1,2.910152197E0,1.010652351E1
4.323046634E0,7.631517649E-1,2.814383984E0,1.002033234E1
4.325056946E0,8.493430614E-1,2.728192806E0,1.001554394E1
4.327067259E0,9.690531492E-1,2.656366825E0,9.972448349E0
4.329077571E0,1.079186440E0,2.570175409E0,9.881468773E0
4.331087884E0,1.146224022E0,2.474407434E0,9.867103577E0
4.333098196E0,1.261145711E0,2.397793055E0,9.771335602E0
4.335108509E0,1.361702204E0,2.306813240E0,9.742605209E0
4.337118821E0,1.433528304E0,2.230198860E0,9.704298019E0
4.339129082E0,1.514931083E0,2.134430885E0,9.627683640E0
4.341139342E0,1.538873196E0,2.053027868E0,9.479243279E0
4.343149603E0,1.572391987E0,1.995567083E0,9.450512886E0
4.345159863E0,1.591545582E0,1.971625090E0,9.460089684E0
4.347170123E0,1.586757183E0,1.942894697E0,9.388263702E0
4.349180384E0,1.543661594E0,1.990778685E0,9.306860924E0
4.351190644E0,1.500565886E0,2.000355482E0,9.182361603E0
4.353200905E0,1.476623893E0,2.072181463E0,9.196727753E0
4.355207467E0,1.476623893E0,2.163161278E0,9.201516151E0
4.357214030E0,1.486200690E0,2.249352455E0,9.158419609E0
4.359221009E0,1.433528304E0,2.282871246E0,9.110535622E0
4.361228509E0,1.275510907E0,2.258929253E0,9.005190849E0
4.363236634E0,1.213261724E0,2.254140854E0,9.019556046E0
4.365245436E0,1.160589218E0,2.268506050E0,9.005190849E0
4.367254967E0,1.146224022E0,2.306813240E0,8.942941666E0
4.369265228E0,1.213261724E0,2.364274263E0,8.981248856E0
4.371276217E0,1.467047095E0,2.560598612E0,9.014767647E0
4.373287832E0,1.462258697E0,2.479195833E0,9.029132843E0
4.375300019E0,1.232415318E0,2.517503023E0,9.043498039E0
4.377312676E0,1.174954534E0,2.584540844E0,9.115324020E0
4.379325696E0,9.786299467E-1,2.594117641E0,9.235034943E0
4.381338926E0,8.876502514E-1,2.665943623E0,9.345168114E0
4.383352259E0,7.918822169E-1,2.709039211E0,9.440936089E0
4.385365592E0,7.631517649E-1,2.771288395E0,9.503185272E0
4.387376009E0,6.817489266E-1,2.790441990E0,9.575011253E0
4.389386269E0,6.578069329E-1,2.828749418E0,9.627683640E0
4.391396530E0,5.285200477E-1,2.790441990E0,9.589376450E0
4.393406790E0,3.657143116E-1,2.742558002E0,9.503185272E0
4.395417051E0,2.029085904E-1,2.680308819E0,9.517550468E0
4.397427311E0,5.446808785E-2,2.622848034E0,9.541492462E0
4.399437571E0,-3.172317147E-2,2.608482838E0,9.589376450E0
4.401447832E0,-1.370680481E-1,2.503137827E0,9.637260437E0
4.403458092E0,-2.807201445E-1,2.412158251E0,9.689932823E0
4.405468353E0,-3.669114113E-1,2.340332270E0,9.766547203E0
4.407478613E0,-4.961982965E-1,2.249352455E0,9.862315178E0
4.409488873E0,-5.823895931E-1,2.177526474E0,9.948506355E0
4.411499134E0,-6.111199856E-1,2.129642487E0,1.005385113E1
4.413509394E0,-7.499836683E-1,2.067393064E0,1.013046551E1
4.415519655E0,-8.888474107E-1,2.024297476E0,1.019271564E1
4.417529915E0,-1.022922635E0,1.976413488E0,1.029806042E1
4.419540176E0,-1.152209520E0,1.928529501E0,1.036030960E1
4.421550436E0,-1.271919608E0,1.871068597E0,1.044171238E1
