"Time (s)","Gyroscope x (rad/s)","Gyroscope y (rad/s)","Gyroscope z (rad/s)"
4.480194300E-2,1.210405827E-1,4.639223218E-1,-3.579285741E-1
4.682017300E-2,1.732385010E-1,4.564654827E-1,-3.557980657E-1
4.883845400E-2,2.233058959E-1,4.468781054E-1,-3.526022732E-1
5.085022500E-2,2.723080218E-1,4.362254739E-1,-3.462106884E-1
5.286043300E-2,3.159838319E-1,4.266380966E-1,-3.355580568E-1
5.487058900E-2,3.532680571E-1,4.234423041E-1,-3.217096329E-1
5.688074500E-2,3.873564899E-1,4.213117659E-1,-3.046653867E-1
5.889090200E-2,4.097270370E-1,4.234423041E-1,-2.897517085E-1
6.090105800E-2,4.299670458E-1,4.266380966E-1,-2.663159072E-1
6.291121400E-2,4.427502155E-1,4.351601899E-1,-2.439453751E-1
6.492137000E-2,4.480765164E-1,4.447475672E-1,-2.215748429E-1
6.693152700E-2,4.491417706E-1,4.596612751E-1,-2.002695650E-1
6.894168300E-2,4.470112622E-1,4.788360000E-1,-1.800295562E-1
7.095183900E-2,4.395544231E-1,5.033370852E-1,-1.619200706E-1
7.296199500E-2,4.225101769E-1,5.267728567E-1,-1.395495385E-1
7.497215200E-2,4.075964987E-1,5.470128655E-1,-1.171789989E-1
7.698230800E-2,3.894870281E-1,5.683181286E-1,-9.374319762E-2
7.899246400E-2,3.671164811E-1,5.874928832E-1,-6.711161137E-2
8.100262000E-2,3.447459340E-1,6.024065614E-1,-4.474107176E-2
8.301277700E-2,3.234406710E-1,6.119939685E-1,-2.343579940E-2
8.502293300E-2,3.000048697E-1,6.183855534E-1,-3.195791040E-3
8.703308900E-2,2.786996067E-1,6.215813160E-1,1.491369121E-2
8.904324500E-2,2.605901062E-1,6.205160618E-1,3.089264594E-2
9.105340200E-2,2.435459048E-1,6.183855534E-1,4.580633715E-2
9.306355800E-2,2.318280041E-1,6.109287143E-1,5.965476483E-2
9.507371400E-2,2.233058959E-1,6.024065614E-1,7.350318879E-2
9.708387000E-2,2.201101035E-1,5.938844681E-1,8.522108942E-2
9.909402700E-2,2.179795653E-1,5.821665525E-1,9.587372839E-2
1.011041830E-1,2.201101035E-1,5.651223660E-1,1.054610983E-1
1.031143390E-1,2.265016884E-1,5.459476113E-1,1.107874215E-1
1.051244950E-1,2.350237966E-1,5.267728567E-1,1.129179448E-1
1.071346520E-1,2.467416972E-1,5.044023395E-1,1.139832065E-1
1.091448080E-1,2.605901062E-1,4.820317924E-1,1.097221524E-1
1.111549640E-1,2.765690684E-1,4.617917836E-1,1.033305749E-1
1.131651200E-1,2.946785688E-1,4.415517747E-1,9.374319762E-2
1.151752770E-1,3.095922470E-1,4.191812575E-1,8.522108942E-2
1.171854330E-1,3.298322558E-1,4.085285962E-1,7.243792713E-2
1.191955890E-1,3.490070105E-1,3.968107104E-1,5.858949944E-2
1.212057450E-1,3.681817353E-1,3.893538713E-1,4.261054471E-2
1.232159020E-1,3.894870281E-1,3.861580789E-1,2.876211889E-2
1.252260580E-1,4.086617529E-1,3.840275407E-1,1.597895473E-2
1.272362140E-1,4.278365076E-1,3.893538713E-1,-2.130527282E-3
1.292463700E-1,4.448807240E-1,3.936149180E-1,-1.065263618E-2
1.312565270E-1,4.619249403E-1,4.042675495E-1,-1.810948178E-2
1.332666830E-1,4.800344408E-1,4.138549268E-1,-2.024000883E-2
1.352768390E-1,4.885565341E-1,4.319643974E-1,-2.130527236E-2
1.372869950E-1,5.024049878E-1,4.468781054E-1,-2.237053588E-2
1.392971520E-1,5.119923353E-1,4.639223218E-1,-2.130527236E-2
1.413073080E-1,5.237102509E-1,4.788360000E-1,-2.130527236E-2
1.433174640E-1,5.322323442E-1,4.937497079E-1,-2.237053588E-2
1.453276200E-1,5.418196917E-1,5.065328479E-1,-2.237053588E-2
1.473377770E-1,5.492765903E-1,5.203812718E-1,-2.450106293E-2
1.493479330E-1,5.577986836E-1,5.289034247E-1,-2.769685537E-2
1.513580890E-1,5.631250143E-1,5.395560265E-1,-2.876211889E-2
1.533682450E-1,5.652555227E-1,5.480781198E-1,-3.408843651E-2
1.553784020E-1,5.663207769E-1,5.544697046E-1,-3.834949061E-2
1.573885580E-1,5.609944463E-1,5.608612895E-1,-4.367581010E-2
1.593987140E-1,5.535376072E-1,5.661876202E-1,-4.687159881E-2
1.614088700E-1,5.460807681E-1,5.768402815E-1,-4.687159881E-2
1.634190270E-1,5.375586748E-1,5.842971206E-1,-4.687159881E-2
1.654291830E-1,5.258407593E-1,5.981455445E-1,-4.687159881E-2
1.674393390E-1,5.151881576E-1,6.077328920E-1,-4.687159881E-2
1.694494950E-1,5.024049878E-1,6.205160618E-1,-4.687159881E-2
1.714596520E-1,4.906870723E-1,6.343644857E-1,-4.474107176E-2
1.734698080E-1,4.789691567E-1,6.546044946E-1,-4.793686420E-2
1.754799640E-1,4.683165252E-1,6.673876643E-1,-4.793686420E-2
1.774901200E-1,4.565986395E-1,6.812360883E-1,-5.219791830E-2
1.795002770E-1,4.416849315E-1,7.004108429E-1,-5.539371073E-2
1.815104330E-1,4.320975542E-1,7.131940126E-1,-6.391581893E-2
1.835205890E-1,4.182491302E-1,7.302381992E-1,-6.817687303E-2
1.855307450E-1,4.012049139E-1,7.440866828E-1,-7.776424289E-2
1.875409540E-1,3.884217441E-1,7.611308694E-1,-8.522108942E-2
1.895511620E-1,3.745733202E-1,7.771098018E-1,-9.587372839E-2
1.915613700E-1,3.596596420E-1,8.005456328E-1,-1.054610983E-1
1.935715790E-1,3.404848874E-1,8.186551332E-1,-1.150484756E-1
1.955817870E-1,3.234406710E-1,8.388951421E-1,-1.267663687E-1
1.975919950E-1,3.032006621E-1,8.591351509E-1,-1.363537461E-1
1.996022040E-1,2.818953991E-1,8.783098459E-1,-1.491369158E-1
2.016124120E-1,2.584595978E-1,8.953540921E-1,-1.576590240E-1
2.036226200E-1,2.318280041E-1,9.102677703E-1,-1.651158631E-1
2.056328290E-1,2.073269337E-1,9.230509400E-1,-1.725727171E-1
2.076430370E-1,1.828258783E-1,9.347688556E-1,-1.789642870E-1
2.096532450E-1,1.561942846E-1,9.443562031E-1,-1.810948253E-1
2.116634540E-1,1.253016293E-1,9.507477880E-1,-1.864211410E-1
2.136736620E-1,9.547425061E-2,9.507477880E-1,-1.906821877E-1
2.156838700E-1,6.351634115E-2,9.507477880E-1,-1.928127259E-1
2.176940790E-1,3.262370080E-2,9.454214573E-1,-1.960085034E-1
2.197042870E-1,2.796316985E-3,9.422256947E-1,-2.013348341E-1
2.217144950E-1,-2.916159295E-2,9.305077791E-1,-2.045306265E-1
2.237247040E-1,-6.218476593E-2,9.187898636E-1,-2.109221965E-1
2.257349120E-1,-9.307741374E-2,9.038761854E-1,-2.173137814E-1
2.277451200E-1,-1.271658540E-1,8.868319988E-1,-2.215748429E-1
2.297553290E-1,-1.569932252E-1,8.623309135E-1,-2.290316820E-1
2.317655370E-1,-1.889511347E-1,8.399603963E-1,-2.386190593E-1
2.337757450E-1,-2.166479975E-1,8.101329803E-1,-2.439453751E-1
2.357859540E-1,-2.422143221E-1,7.792403698E-1,-2.503369451E-1
2.377961620E-1,-2.688459158E-1,7.430213690E-1,-2.577938139E-1
2.398063700E-1,-2.922817171E-1,7.068024278E-1,-2.641853690E-1
2.418165790E-1,-3.093259335E-1,6.684529185E-1,-2.684464455E-1
2.438267870E-1,-3.295659423E-1,6.279729009E-1,-2.748380303E-1
2.458369950E-1,-3.423491120E-1,5.853623748E-1,-2.790990770E-1
2.478472040E-1,-3.572627902E-1,5.470128655E-1,-2.748380303E-1
2.498574120E-1,-3.668501675E-1,5.118591785E-1,-2.705769539E-1
2.518676200E-1,-3.753722608E-1,4.713791609E-1,-2.567285299E-1
2.538778290E-1,-3.849596381E-1,4.362254739E-1,-2.439453751E-1
2.558880370E-1,-3.934817612E-1,3.968107104E-1,-2.269011587E-1
2.578982450E-1,-3.934817612E-1,3.488738537E-1,-2.109221965E-1
2.599084540E-1,-3.913512230E-1,2.988064587E-1,-1.906821877E-1
2.619186620E-1,-3.764375448E-1,2.466085255E-1,-1.768337637E-1
2.639288700E-1,-3.466101587E-1,1.933453530E-1,-1.693769246E-1
2.659390270E-1,-3.125217259E-1,1.422126889E-1,-1.661811322E-1
2.679491830E-1,-2.741722167E-1,9.640636295E-2,-1.640505940E-1
2.699593390E-1,-2.390185297E-1,5.592634156E-2,-1.640505940E-1
2.719694950E-1,-2.049300969E-1,2.183790505E-2,-1.576590240E-1
2.739796520E-1,-1.782985032E-1,-6.924213842E-3,-1.480716467E-1
2.759898080E-1,-1.527321786E-1,-3.355580568E-2,-1.331579536E-1
2.779999640E-1,-1.250353158E-1,-6.231792271E-2,-1.203747913E-1
2.800101200E-1,-9.201214463E-2,-9.427583218E-2,-1.118526831E-1
2.820202770E-1,-5.792371184E-2,-1.272990108E-1,-1.065263674E-1
2.840304330E-1,-2.596580051E-2,-1.592569202E-1,-1.043958366E-1
2.860405890E-1,7.057371549E-3,-1.880190372E-1,-1.033305749E-1
2.880507450E-1,3.688475490E-2,-2.157158852E-1,-1.075916290E-1
2.900609020E-1,6.990792602E-2,-2.359558940E-1,-1.107874215E-1
2.920710580E-1,9.973530471E-2,-2.530001104E-1,-1.171789989E-1
2.940812140E-1,1.274321675E-1,-2.604569495E-1,-1.203747913E-1
2.960913700E-1,1.540637612E-1,-2.604569495E-1,-1.235705838E-1
2.981015270E-1,1.743037701E-1,-2.593916953E-1,-1.267663687E-1
3.001116830E-1,1.966743022E-1,-2.561959028E-1,-1.278316379E-1
3.021218390E-1,2.158490419E-1,-2.434127480E-1,-1.267663687E-1
3.041319950E-1,2.296974659E-1,-2.327601016E-1,-1.257011145E-1
3.061421520E-1,2.446111590E-1,-2.210422009E-1,-1.235705838E-1
3.081523080E-1,2.563290596E-1,-2.071937770E-1,-1.171789989E-1
3.101624640E-1,2.659164369E-1,-1.922800839E-1,-1.086568907E-1
3.121726200E-1,2.733732760E-1,-1.752358675E-1,-9.906952083E-2
3.141827770E-1,2.776343226E-1,-1.613874435E-1,-9.161267430E-2
3.161929330E-1,2.850911915E-1,-1.464737505E-1,-8.309056610E-2
3.182030890E-1,2.914827764E-1,-1.283642650E-1,-7.137266546E-2
3.202132450E-1,2.946785688E-1,-1.049284711E-1,-6.072002649E-2
3.222234020E-1,2.957438231E-1,-8.042740822E-2,-4.900212586E-2
3.242335580E-1,2.989396155E-1,-5.486107618E-2,-3.302317113E-2
3.262437140E-1,3.053312004E-1,-2.290316857E-2,-1.917474531E-2
3.282538700E-1,3.074617088E-1,1.864211448E-2,-3.195791040E-3
3.302640270E-1,3.095922470E-1,6.444845349E-2,1.171789970E-2
3.322741830E-1,3.095922470E-1,1.145158410E-1,2.663159184E-2
3.342843390E-1,3.063964546E-1,1.635179669E-1,4.154528305E-2
3.362944950E-1,3.010701239E-1,2.157158852E-1,5.965476483E-2
3.383046520E-1,2.957438231E-1,2.668485343E-1,7.350318879E-2
3.403148080E-1,2.904174924E-1,3.179811835E-1,8.628635854E-2
3.423249640E-1,2.818953991E-1,3.691138625E-1,9.906952083E-2
3.443351200E-1,2.723080218E-1,4.181159735E-1,1.107874215E-1
3.463452770E-1,2.637858987E-1,4.649875760E-1,1.203747913E-1
3.483554330E-1,2.520680130E-1,5.097286701E-1,1.288969070E-1
3.503655890E-1,2.403501123E-1,5.502086878E-1,1.331579536E-1
3.523757450E-1,2.318280041E-1,5.832318664E-1,1.384842694E-1
3.543859020E-1,2.233058959E-1,5.992107987E-1,1.416800618E-1
3.563960580E-1,2.179795653E-1,6.077328920E-1,1.438105851E-1
3.584062140E-1,2.137185186E-1,6.130592227E-1,1.438105851E-1
3.604163700E-1,2.126532495E-1,6.151897311E-1,1.416800618E-1
3.624265270E-1,2.158490419E-1,6.151897311E-1,1.427453309E-1
3.644366830E-1,2.179795653E-1,6.194508076E-1,1.427453309E-1
3.664468390E-1,2.211753577E-1,6.290381551E-1,1.427453309E-1
3.684569950E-1,2.233058959E-1,6.396908164E-1,1.384842694E-1
3.704671520E-1,2.243711501E-1,6.524739861E-1,1.363537461E-1
3.724773080E-1,2.179795653E-1,6.631265879E-1,1.331579536E-1
3.744874640E-1,2.179795653E-1,6.780403256E-1,1.331579536E-1
3.764976200E-1,2.158490419E-1,6.876276731E-1,1.342232227E-1
3.785077770E-1,2.062616795E-1,6.929540038E-1,1.363537461E-1
3.805179330E-1,1.988048255E-1,6.940192580E-1,1.352884769E-1
3.825280890E-1,1.902827173E-1,6.886929274E-1,1.363537461E-1
3.845382450E-1,1.764342934E-1,6.812360883E-1,1.363537461E-1
3.865484020E-1,1.657816470E-1,6.716487408E-1,1.342232227E-1
3.885585580E-1,1.508679688E-1,6.663224101E-1,1.342232227E-1
3.905687140E-1,1.327584833E-1,6.588655710E-1,1.331579536E-1
3.925788700E-1,1.157142594E-1,6.503434777E-1,1.363537461E-1
3.945890790E-1,9.653951973E-2,6.418213248E-1,1.352884769E-1
3.965992870E-1,7.949529588E-2,6.290381551E-1,1.342232227E-1
3.986094950E-1,6.138581783E-2,6.162550449E-1,1.363537461E-1
4.006197040E-1,4.327633604E-2,6.013413072E-1,1.374190152E-1
4.026299120E-1,2.410159074E-2,5.842971206E-1,1.363537461E-1
4.046401200E-1,8.122635074E-3,5.683181286E-1,1.363537461E-1
4.066503290E-1,-6.791055668E-3,5.534044504E-1,1.352884769E-1
4.086605370E-1,-2.596580051E-2,5.352949500E-1,1.363537461E-1
4.106707450E-1,-4.620581120E-2,5.171855092E-1,1.363537461E-1
4.126809540E-1,-6.325002760E-2,4.990760088E-1,1.374190152E-1
4.146911620E-1,-8.135951310E-2,4.777707458E-1,1.406148076E-1
4.167013700E-1,-9.840372950E-2,4.607265294E-1,1.416800618E-1
4.187115790E-1,-1.154479459E-1,4.394212663E-1,1.427453309E-1
4.207217870E-1,-1.303616315E-1,4.223770201E-1,1.480716467E-1
4.227319950E-1,-1.463405937E-1,4.010717571E-1,1.491369158E-1
4.247422040E-1,-1.591237634E-1,3.850927949E-1,1.544632316E-1
4.267524120E-1,-1.697763950E-1,3.659180701E-1,1.565937549E-1
4.287626200E-1,-1.804290265E-1,3.499391079E-1,1.608548164E-1
4.307728290E-1,-1.846900880E-1,3.371559381E-1,1.683116555E-1
4.327830370E-1,-1.932121962E-1,3.222422600E-1,1.810948253E-1
4.347932450E-1,-1.985385120E-1,3.083938360E-1,1.938779801E-1
4.368034540E-1,-2.038648278E-1,2.902843356E-1,2.098569423E-1
4.388136620E-1,-2.113216817E-1,2.700443268E-1,2.269011587E-1
4.408238700E-1,-2.145174593E-1,2.508696020E-1,2.450106442E-1
4.428340790E-1,-2.209090441E-1,2.306295782E-1,2.641853690E-1
4.448406930E-1,-2.294311523E-1,2.125200927E-1,2.822948694E-1
4.468473080E-1,-2.368880063E-1,1.954758763E-1,2.961432934E-1
4.488543390E-1,-2.443448454E-1,1.816274524E-1,3.089264631E-1
4.508618910E-1,-2.486059070E-1,1.688442826E-1,3.174485564E-1
4.528700680E-1,-2.475406379E-1,1.581916511E-1,3.270359337E-1
4.548789230E-1,-2.475406379E-1,1.571263820E-1,3.302317262E-1
4.568884540E-1,-2.454101145E-1,1.603221744E-1,3.355580568E-1
4.588986620E-1,-2.400837988E-1,1.720400751E-1,3.408843577E-1
4.609095480E-1,-2.379532605E-1,1.858884990E-1,3.451454341E-1
4.629210580E-1,-2.368880063E-1,2.050632536E-1,3.494064808E-1
4.649330890E-1,-2.336922139E-1,2.253032625E-1,3.515369892E-1
4.669455370E-1,-2.336922139E-1,2.455432713E-1,3.557980657E-1
4.689582980E-1,-2.326269448E-1,2.593916953E-1,3.611243665E-1
4.709712660E-1,-2.326269448E-1,2.732401192E-1,3.632549047E-1
4.729843390E-1,-2.336922139E-1,2.902843356E-1,3.653854430E-1
4.749973600E-1,-2.336922139E-1,3.020022511E-1,3.664506972E-1
4.770075160E-1,-2.347574681E-1,3.105243444E-1,3.675159514E-1
4.790176730E-1,-2.368880063E-1,3.201117218E-1,3.653854430E-1
4.810278290E-1,-2.326269448E-1,3.254380524E-1,3.611243665E-1
4.830379850E-1,-2.283658981E-1,3.318296373E-1,3.515369892E-1
4.850481410E-1,-2.198437899E-1,3.382211924E-1,3.440801501E-1
4.870582980E-1,-2.091911435E-1,3.424822688E-1,3.334275186E-1
4.890684540E-1,-1.985385120E-1,3.446127772E-1,3.217096329E-1
4.910786100E-1,-1.889511347E-1,3.456780612E-1,3.110569715E-1
4.930887660E-1,-1.814942956E-1,3.403517306E-1,2.993390858E-1
4.950989230E-1,-1.761679798E-1,3.350254297E-1,2.886864543E-1
4.971090790E-1,-1.697763950E-1,3.265033066E-1,2.790990770E-1
4.991192350E-1,-1.623195410E-1,3.137201369E-1,2.663159072E-1
5.011293910E-1,-1.548627019E-1,2.924148738E-1,2.556632757E-1
5.031395480E-1,-1.527321786E-1,2.679138184E-1,2.439453751E-1
5.051497040E-1,-1.463405937E-1,2.380864173E-1,2.332927436E-1
5.071598600E-1,-1.420795321E-1,2.008021921E-1,2.247706354E-1
5.091700160E-1,-1.346226931E-1,1.560611278E-1,2.130527347E-1
5.111801730E-1,-1.303616315E-1,1.059937328E-1,1.970737725E-1
5.131903290E-1,-1.207742617E-1,6.125266105E-2,1.778990328E-1
5.152004850E-1,-1.122521535E-1,2.290316857E-2,1.587242782E-1
5.172106410E-1,-1.069258377E-1,-1.597895520E-3,1.374190152E-1
5.192207980E-1,-9.520793706E-2,-9.054740891E-3,1.203747913E-1
5.212309540E-1,-8.562056720E-2,-1.597895520E-3,1.043958366E-1
5.232411100E-1,-7.070687413E-2,1.970737800E-2,9.374319762E-2
5.252512660E-1,-6.005423889E-2,4.633896798E-2,8.735162020E-2
5.272614230E-1,-4.620581120E-2,6.764423847E-2,8.202529699E-2
5.292715790E-1,-3.661843762E-2,7.616634667E-2,8.309056610E-2
5.312817350E-1,-2.703106403E-2,7.936213911E-2,8.735162020E-2
5.332918910E-1,-1.637842879E-2,7.190529257E-2,9.267793596E-2
5.353020480E-1,-7.856319658E-3,6.125266105E-2,9.480846673E-2
5.373122040E-1,-5.725792143E-3,5.273054913E-2,9.374319762E-2
5.393226730E-1,-1.464737463E-3,4.101264849E-2,9.267793596E-2
5.413331410E-1,1.731053460E-3,2.609895915E-2,8.735162020E-2
5.433433500E-1,2.796316985E-3,1.597895520E-3,7.989477366E-2
5.453535060E-1,7.057371549E-3,-2.290316857E-2,6.924213469E-2
5.473636620E-1,1.238369010E-2,-4.846949503E-2,5.965476483E-2
5.493738180E-1,1.984053478E-2,-7.510108501E-2,4.580633715E-2
5.513839750E-1,2.942790836E-2,-9.214530140E-2,3.195790946E-2
5.533941310E-1,4.221107066E-2,-1.017326787E-1,1.704421826E-2
5.554042870E-1,5.392897129E-2,-1.038632020E-1,-2.130527282E-3
5.574144430E-1,6.777740270E-2,-1.017326787E-1,-1.704421826E-2
5.594246000E-1,8.375635743E-2,-9.853688627E-2,-3.408843651E-2
5.614347560E-1,9.760478139E-2,-9.321057051E-2,-4.580633715E-2
5.634449120E-1,1.114532053E-1,-9.321057051E-2,-5.752423778E-2
5.654550680E-1,1.274321675E-1,-9.214530140E-2,-6.604634225E-2
5.674652250E-1,1.412805915E-1,-9.214530140E-2,-7.563371956E-2
5.694753810E-1,1.519332230E-1,-9.640636295E-2,-8.415582776E-2
5.714855370E-1,1.615206003E-1,-9.960214794E-2,-9.267793596E-2
5.734956930E-1,1.700427085E-1,-1.049284711E-1,-1.022653133E-1
5.755058500E-1,1.796300858E-1,-1.081242561E-1,-1.086568907E-1
5.775160060E-1,1.860216707E-1,-1.070589945E-1,-1.150484756E-1
5.795261620E-1,1.924132407E-1,-1.091895252E-1,-1.193095297E-1
5.815363180E-1,1.977395564E-1,-1.102547869E-1,-1.246358454E-1
5.835464750E-1,2.030658871E-1,-1.166463718E-1,-1.257011145E-1
5.855566310E-1,2.094574571E-1,-1.177116334E-1,-1.288969070E-1
5.875667870E-1,2.137185186E-1,-1.187768951E-1,-1.278316379E-1
5.895769430E-1,2.190448344E-1,-1.177116334E-1,-1.246358454E-1
5.915871000E-1,2.222406268E-1,-1.134505793E-1,-1.225053221E-1
5.935972560E-1,2.286322117E-1,-1.102547869E-1,-1.203747913E-1
5.956074120E-1,2.339585274E-1,-9.960214794E-2,-1.182442605E-1
5.976175680E-1,2.360890508E-1,-9.427583218E-2,-1.171789989E-1
5.996277250E-1,2.392848432E-1,-8.788424730E-2,-1.161137372E-1
6.016378810E-1,2.382195890E-1,-8.255793154E-2,-1.203747913E-1
6.036480370E-1,2.371543199E-1,-7.829687744E-2,-1.235705838E-1
6.056581930E-1,2.350237966E-1,-7.297056168E-2,-1.288969070E-1
6.076683500E-1,2.286322117E-1,-6.764423847E-2,-1.342232227E-1
6.096785060E-1,2.222406268E-1,-6.231792271E-2,-1.406148076E-1
6.116886620E-1,2.094574571E-1,-5.912213027E-2,-1.470063776E-1
6.136988180E-1,2.030658871E-1,-5.273054913E-2,-1.544632316E-1
6.157089750E-1,1.924132407E-1,-4.740423337E-2,-1.597895473E-1
6.177191310E-1,1.796300858E-1,-3.888212144E-2,-1.672463864E-1
6.197292870E-1,1.657816470E-1,-3.142527863E-2,-1.736379713E-1
6.217394430E-1,1.551290154E-1,-2.716422267E-2,-1.778990328E-1
6.237496000E-1,1.423458606E-1,-2.503369562E-2,-1.810948253E-1
6.257597560E-1,1.284974217E-1,-2.503369562E-2,-1.832253486E-1
6.277699120E-1,1.178447902E-1,-2.396843210E-2,-1.864211410E-1
6.297800680E-1,1.061268896E-1,-2.609895915E-2,-1.864211410E-1
6.317902250E-1,9.440898895E-2,-3.036001325E-2,-1.874863952E-1
6.338003810E-1,8.588688076E-2,-3.142527863E-2,-1.885516644E-1
6.358105370E-1,7.843003422E-2,-3.462106735E-2,-1.864211410E-1
6.378206930E-1,7.097318769E-2,-3.675159439E-2,-1.885516644E-1
6.398308500E-1,6.458161026E-2,-3.888212144E-2,-1.917474568E-1
6.418410060E-1,6.032055244E-2,-3.888212144E-2,-1.938779801E-1
6.438511620E-1,5.712476373E-2,-3.994738683E-2,-1.981390417E-1
6.458613180E-1,5.073318258E-2,-3.888212144E-2,-2.013348341E-1
6.478714750E-1,5.073318258E-2,-3.888212144E-2,-2.066611499E-1
6.498816310E-1,4.860265180E-2,-3.994738683E-2,-2.087916732E-1
6.518917870E-1,4.753739014E-2,-4.314317927E-2,-2.119874656E-1
6.539019430E-1,4.434159771E-2,-4.953476042E-2,-2.141179889E-1
6.559121000E-1,4.434159771E-2,-5.379581451E-2,-2.141179889E-1
6.579222560E-1,4.540686309E-2,-5.912213027E-2,-2.162485123E-1
6.599324120E-1,4.753739014E-2,-6.338318437E-2,-2.151832581E-1
6.619425680E-1,4.753739014E-2,-6.870950758E-2,-2.162485123E-1
6.639527250E-1,5.286370963E-2,-7.190529257E-2,-2.162485123E-1
6.659628810E-1,5.286370963E-2,-7.936213911E-2,-2.151832581E-1
6.679730370E-1,5.925529078E-2,-8.894951642E-2,-2.130527347E-1
6.699831930E-1,6.458161026E-2,-9.960214794E-2,-2.098569423E-1
6.719934020E-1,6.990792602E-2,-1.155811027E-1,-2.109221965E-1
6.740036100E-1,7.523424178E-2,-1.358211190E-1,-2.087916732E-1
6.760138180E-1,8.269108832E-2,-1.571263820E-1,-2.098569423E-1
6.780240270E-1,8.801741153E-2,-1.773663908E-1,-2.098569423E-1
6.800342350E-1,9.547425061E-2,-2.029327303E-1,-2.119874656E-1
6.820444430E-1,1.029310971E-1,-2.306295782E-1,-2.119874656E-1
6.840546520E-1,1.071921512E-1,-2.604569495E-1,-2.109221965E-1
6.860648600E-1,1.103879437E-1,-2.892190814E-1,-2.130527347E-1
6.880750680E-1,1.157142594E-1,-3.158506751E-1,-2.109221965E-1
6.900852770E-1,1.199753210E-1,-3.403517306E-1,-2.087916732E-1
6.920954850E-1,1.253016293E-1,-3.605917394E-1,-2.087916732E-1
6.941056930E-1,1.295626909E-1,-3.776359558E-1,-2.087916732E-1
6.961159020E-1,1.338237375E-1,-3.914843798E-1,-2.119874656E-1
6.981261100E-1,1.380847991E-1,-4.063980877E-1,-2.151832581E-1
7.001363180E-1,1.402153224E-1,-4.170507193E-1,-2.205095738E-1
7.021465270E-1,1.391500682E-1,-4.277033508E-1,-2.247706354E-1
7.041567350E-1,1.391500682E-1,-4.330296814E-1,-2.290316820E-1
7.061669430E-1,1.359542757E-1,-4.362254739E-1,-2.364885211E-1
7.081771520E-1,1.295626909E-1,-4.447475672E-1,-2.450106442E-1
7.101873600E-1,1.199753210E-1,-4.490086138E-1,-2.514022291E-1
7.121975680E-1,1.061268896E-1,-4.511391521E-1,-2.577938139E-1
7.142077770E-1,9.014793485E-2,-4.575307369E-1,-2.684464455E-1
7.162179850E-1,7.203845680E-2,-4.564654827E-1,-2.759032845E-1
7.182281930E-1,5.073318258E-2,-4.543349445E-1,-2.844253778E-1
7.202384020E-1,2.729738131E-2,-4.500738978E-1,-2.918822467E-1
7.222486100E-1,-1.464737463E-3,-4.458128214E-1,-2.982738316E-1
7.242588180E-1,-2.703106403E-2,-4.362254739E-1,-3.036001325E-1
7.262690270E-1,-5.898897350E-2,-4.287686050E-1,-3.067959249E-1
7.282792350E-1,-8.881635964E-2,-4.181159735E-1,-3.142527640E-1
7.302894430E-1,-1.207742617E-1,-4.021370113E-1,-3.238401413E-1
7.322996520E-1,-1.516669095E-1,-3.829622865E-1,-3.323622644E-1
7.343098600E-1,-1.814942956E-1,-3.595264852E-1,-3.419496417E-1
7.363200680E-1,-2.134522051E-1,-3.339601457E-1,-3.526022732E-1
7.383302770E-1,-2.422143221E-1,-3.073285520E-1,-3.600591123E-1
7.403404850E-1,-2.688459158E-1,-2.806969583E-1,-3.675159514E-1
7.423506930E-1,-2.933469713E-1,-2.572611570E-1,-3.739075363E-1
7.443609020E-1,-3.167827725E-1,-2.327601016E-1,-3.813643754E-1
7.463711100E-1,-3.327617347E-1,-2.093243003E-1,-3.824296594E-1
7.483813180E-1,-3.487406969E-1,-1.880190372E-1,-3.877559602E-1
7.503915270E-1,-3.593933284E-1,-1.624527127E-1,-4.026696682E-1
7.524017350E-1,-3.647196293E-1,-1.422126889E-1,-4.154528081E-1
7.544118910E-1,-3.700459599E-1,-1.219726875E-1,-4.229096770E-1
7.564220480E-1,-3.721764982E-1,-9.960214794E-2,-4.293012619E-1
7.584322040E-1,-3.721764982E-1,-7.829687744E-2,-4.346275628E-1
7.604423600E-1,-3.700459599E-1,-6.018739566E-2,-4.346275628E-1
7.624525160E-1,-3.711112142E-1,-4.207791388E-2,-4.410191476E-1
7.644626730E-1,-3.732417524E-1,-9.054740891E-3,-4.601939023E-1
7.664728290E-1,-3.721764982E-1,2.290316857E-2,-4.878907502E-1
7.684829850E-1,-3.721764982E-1,5.379581451E-2,-5.070654750E-1
7.704931410E-1,-3.721764982E-1,8.042740822E-2,-5.187833905E-1
7.725032980E-1,-3.689807057E-1,1.038632020E-1,-5.187833905E-1
7.745134540E-1,-3.636543751E-1,1.219726875E-1,-5.166528821E-1
7.765236100E-1,-3.572627902E-1,1.272990108E-1,-5.070654750E-1
7.785337660E-1,-3.487406969E-1,1.272990108E-1,-4.953475893E-1
7.805439230E-1,-3.370227814E-1,1.358211190E-1,-4.814991653E-1
7.825540790E-1,-3.199785650E-1,1.432779580E-1,-4.644549489E-1
7.845642350E-1,-3.018690944E-1,1.486042738E-1,-4.484759867E-1
7.865743910E-1,-2.837595940E-1,1.581916511E-1,-4.282359779E-1
7.885845480E-1,-2.571280003E-1,1.826927215E-1,-4.005391300E-1
7.905947040E-1,-2.198437899E-1,2.444780022E-1,-3.600591123E-1
7.926048600E-1,-1.793637723E-1,3.041327596E-1,-3.153180480E-1
7.946150160E-1,-1.356879622E-1,3.531349003E-1,-2.705769539E-1
7.966251730E-1,-9.094688296E-2,4.053328037E-1,-2.258358896E-1
7.986353290E-1,-4.194475710E-2,4.820317924E-1,-1.747032404E-1
8.006454850E-1,9.187898599E-3,5.747097135E-1,-1.214400530E-1
8.026556410E-1,6.458161026E-2,6.514087319E-1,-7.243792713E-2
8.046657980E-1,1.199753210E-1,7.185203433E-1,-2.663159184E-2
8.066759540E-1,1.711079776E-1,7.803056240E-1,1.917474531E-2
8.086861100E-1,2.233058959E-1,8.356993198E-1,5.752423778E-2
8.106962660E-1,2.786996067E-1,8.910930157E-1,9.587372839E-2
8.127064230E-1,3.277017176E-1,9.443562031E-1,1.320926845E-1
8.147165790E-1,3.788343966E-1,9.922930598E-1,1.629853398E-1
8.167267350E-1,4.267712533E-1,1.038099408E0,1.928127259E-1
8.187368910E-1,4.747081101E-1,1.083905697E0,2.194443047E-1
8.207470480E-1,5.194491744E-1,1.129712105E0,2.428801060E-1
8.227572040E-1,5.631250143E-1,1.173387885E0,2.620548606E-1
8.247673600E-1,6.046702862E-1,1.220259547E0,2.790990770E-1
8.267775160E-1,6.451503038E-1,1.263935328E0,2.918822467E-1
8.287876730E-1,6.845650673E-1,1.304415345E0,3.014696240E-1
8.307978290E-1,7.197187543E-1,1.351286888E0,3.057306707E-1
8.328079850E-1,7.548724413E-1,1.389636397E0,3.078611791E-1
8.348181410E-1,7.878956199E-1,1.430116415E0,3.067959249E-1
8.368282980E-1,8.187882900E-1,1.464204907E0,3.036001325E-1
8.388384540E-1,8.475503922E-1,1.496162772E0,2.972085476E-1
8.408486100E-1,8.741819859E-1,1.525990129E0,2.908169627E-1
8.428587660E-1,8.976177573E-1,1.551556468E0,2.769685388E-1
8.448689230E-1,9.178577662E-1,1.572861791E0,2.673811615E-1
8.468790790E-1,9.359672666E-1,1.583514452E0,2.556632757E-1
8.488892350E-1,9.519461989E-1,1.594166994E0,2.460758984E-1
8.508993910E-1,9.615336061E-1,1.600558639E0,2.364885211E-1
8.529095480E-1,9.711209536E-1,1.598428130E0,2.300969511E-1
8.549197040E-1,9.743167758E-1,1.592036486E0,2.205095738E-1
8.569298600E-1,9.721862078E-1,1.582449198E0,2.162485123E-1
8.589400160E-1,9.625988603E-1,1.569666028E0,2.109221965E-1
8.609501730E-1,9.519461989E-1,1.555817604E0,2.077264041E-1
8.629603290E-1,9.338367581E-1,1.544099689E0,2.045306265E-1
8.649704850E-1,9.093356729E-1,1.532381773E0,2.034653574E-1
8.669806410E-1,8.827040792E-1,1.518533349E0,2.024000883E-1
8.689907980E-1,8.518114686E-1,1.501489043E0,2.024000883E-1
8.710009540E-1,8.166577220E-1,1.481249094E0,2.045306265E-1
8.730111100E-1,7.772429585E-1,1.454617500E0,2.045306265E-1
8.750212660E-1,7.367629409E-1,1.423724890E0,2.045306265E-1
8.770314230E-1,6.930871606E-1,1.387505889E0,2.034653574E-1
8.790416310E-1,6.483460665E-1,1.344895363E0,1.981390417E-1
8.810518390E-1,6.004092097E-1,1.296958447E0,1.917474568E-1
8.830620480E-1,5.556681752E-1,1.243695259E0,1.821600795E-1
8.850722560E-1,5.119923353E-1,1.187236309E0,1.672463864E-1
8.870824640E-1,4.693817794E-1,1.127581596E0,1.512674391E-1
8.890926730E-1,4.278365076E-1,1.066861510E0,1.310274303E-1
8.911028810E-1,3.884217441E-1,9.976193905E-1,1.097221524E-1
8.931130890E-1,3.490070105E-1,9.283772707E-1,8.522108942E-2
8.951232980E-1,3.138532937E-1,8.548740745E-1,6.178529188E-2
8.971335060E-1,2.818953991E-1,7.835013866E-1,3.728422895E-2
8.991437140E-1,2.510027587E-1,7.068024278E-1,1.278316416E-2
9.011539230E-1,2.233058959E-1,6.332992315E-1,-6.391582079E-3
9.031641310E-1,2.020006180E-1,5.661876202E-1,-2.663159184E-2
9.051743390E-1,1.817606091E-1,5.001412630E-1,-4.261054471E-2
9.071845480E-1,1.615206003E-1,4.426170290E-1,-5.965476483E-2
9.091947560E-1,1.466069072E-1,3.904191256E-1,-7.030740380E-2
9.112049640E-1,1.370195299E-1,3.403517306E-1,-8.096003532E-2
9.132151730E-1,1.263668984E-1,3.030675054E-1,-8.948214352E-2
9.152253810E-1,1.210405827E-1,2.689790726E-1,-9.587372839E-2
9.172355890E-1,1.167795286E-1,2.402169555E-1,-1.012000442E-1
9.192457980E-1,1.146489978E-1,2.157158852E-1,-1.054610983E-1
9.212560060E-1,1.167795286E-1,2.008021921E-1,-1.086568907E-1
9.232662140E-1,1.210405827E-1,1.880190372E-1,-1.097221524E-1
9.252764230E-1,1.284974217E-1,1.816274524E-1,-1.129179448E-1
9.272866310E-1,1.348890066E-1,1.763011366E-1,-1.129179448E-1
9.292968390E-1,1.466069072E-1,1.763011366E-1,-1.150484756E-1
9.313070480E-1,1.604553312E-1,1.784316599E-1,-1.182442605E-1
9.333172560E-1,1.753690243E-1,1.805621833E-1,-1.214400530E-1
9.353274640E-1,1.892174482E-1,1.826927215E-1,-1.246358454E-1
9.373376730E-1,2.041311413E-1,1.826927215E-1,-1.267663687E-1
9.393478810E-1,2.211753577E-1,1.816274524E-1,-1.310274303E-1
9.413580890E-1,2.371543199E-1,1.805621833E-1,-1.374190152E-1
9.433682980E-1,2.520680130E-1,1.763011366E-1,-1.427453309E-1
9.453812660E-1,2.680469751E-1,1.720400751E-1,-1.480716467E-1
9.473888700E-1,2.861564457E-1,1.624527127E-1,-1.544632316E-1
9.493965790E-1,3.032006621E-1,1.528653353E-1,-1.587242782E-1
9.514044430E-1,3.181143403E-1,1.379516423E-1,-1.608548164E-1
9.534125680E-1,3.330280483E-1,1.209074259E-1,-1.629853398E-1
9.554210060E-1,3.458112180E-1,1.038632020E-1,-1.640505940E-1
9.574298080E-1,3.585943878E-1,8.468846232E-2,-1.661811322E-1
9.594390270E-1,3.692470193E-1,6.444845349E-2,-1.661811322E-1
9.614487140E-1,3.798996508E-1,4.527370632E-2,-1.683116555E-1
9.634588700E-1,3.873564899E-1,2.290316857E-2,-1.651158631E-1
9.654694430E-1,3.926828206E-1,5.326318205E-4,-1.651158631E-1
9.674804330E-1,3.980091214E-1,-2.396843210E-2,-1.640505940E-1
9.694917870E-1,4.022701681E-1,-4.633896798E-2,-1.629853398E-1
9.715034540E-1,4.054659605E-1,-6.764423847E-2,-1.629853398E-1
9.735153290E-1,4.065312445E-1,-9.214530140E-2,-1.661811322E-1
9.755273600E-1,4.097270370E-1,-1.155811027E-1,-1.672463864E-1
9.775394430E-1,4.107922912E-1,-1.358211190E-1,-1.725727171E-1
9.795515270E-1,4.129228294E-1,-1.571263820E-1,-1.789642870E-1
9.815618910E-1,4.129228294E-1,-1.784316599E-1,-1.864211410E-1
9.835721000E-1,4.161186218E-1,-2.029327303E-1,-1.949432492E-1
9.855822560E-1,4.214449227E-1,-2.338253707E-1,-2.066611499E-1
9.875924120E-1,4.310323000E-1,-2.679138184E-1,-2.183790505E-1
9.896025680E-1,4.384891391E-1,-2.998717129E-1,-2.311622053E-1
9.916127250E-1,4.491417706E-1,-3.286338449E-1,-2.439453751E-1
9.936228810E-1,4.608596861E-1,-3.552654386E-1,-2.545980215E-1
9.956330370E-1,4.757733643E-1,-3.797664940E-1,-2.641853690E-1
9.976431930E-1,4.885565341E-1,-4.021370113E-1,-2.737727463E-1
9.996533500E-1,5.045354962E-1,-4.234423041E-1,-2.812296152E-1
1.001663506E0,5.194491744E-1,-4.479433596E-1,-2.876211703E-1
1.003673662E0,5.354281664E-1,-4.756402075E-1,-2.961432934E-1
1.005683818E0,5.460807681E-1,-5.086634159E-1,-3.036001325E-1
1.007693975E0,5.546028614E-1,-5.438171029E-1,-3.099917173E-1
1.009704131E0,5.652555227E-1,-5.821665525E-1,-3.163833022E-1
1.011714287E0,5.684512854E-1,-6.183855534E-1,-3.206443489E-1
1.013724443E0,5.716471076E-1,-6.492781639E-1,-3.227748871E-1
1.015734600E0,5.727123618E-1,-6.727139950E-1,-3.249054253E-1
1.017744756E0,5.748428702E-1,-6.833665967E-1,-3.270359337E-1
1.019754912E0,5.737776160E-1,-6.823013425E-1,-3.302317262E-1
1.021765068E0,5.769734383E-1,-6.673876643E-1,-3.344927728E-1
1.023775225E0,5.791039467E-1,-6.119939685E-1,-3.387538493E-1
1.025785381E0,5.759081841E-1,-5.086634159E-1,-3.430148959E-1
1.027795537E0,5.801692009E-1,-3.808317482E-1,-3.504717350E-1
1.029805693E0,5.844302773E-1,-2.679138184E-1,-3.568633199E-1
1.031815850E0,5.918871164E-1,-1.752358675E-1,-3.664506972E-1
1.033826006E0,5.993439555E-1,-9.214530140E-2,-3.760380745E-1
1.035836162E0,6.089313030E-1,-2.077264152E-2,-3.856254518E-1
1.037846318E0,6.195839643E-1,2.929474972E-2,-3.962780833E-1
1.039856475E0,6.313018799E-1,6.870950758E-2,-4.090612531E-1
1.041866631E0,6.398239732E-1,9.640636295E-2,-4.165180922E-1
1.043876787E0,6.494113207E-1,1.155811027E-1,-4.303665161E-1
1.045886943E0,6.558029056E-1,1.304948032E-1,-4.399538934E-1
1.047897100E0,6.600639820E-1,1.411474347E-1,-4.516717792E-1
1.049907256E0,6.632598042E-1,1.422126889E-1,-4.633896947E-1
1.051917412E0,6.643250585E-1,1.411474347E-1,-4.708465338E-1
1.053927568E0,6.643250585E-1,1.368863732E-1,-4.793686271E-1
1.055937725E0,6.589987278E-1,1.294295341E-1,-4.836297035E-1
1.057947881E0,6.515418887E-1,1.166463718E-1,-4.889560044E-1
1.059958037E0,6.430197358E-1,1.049284711E-1,-4.878907502E-1
1.061968193E0,6.334323883E-1,8.894951642E-2,-4.878907502E-1
1.063978350E0,6.227797270E-1,6.870950758E-2,-4.846949577E-1
1.065988506E0,6.121271253E-1,4.101264849E-2,-4.793686271E-1
1.067998662E0,6.004092097E-1,1.225053146E-2,-4.719117880E-1
1.070008818E0,5.940176249E-1,-1.757685095E-2,-4.644549489E-1
1.072018975E0,5.865607858E-1,-4.846949503E-2,-4.559328258E-1
1.074029131E0,5.833650231E-1,-7.936213911E-2,-4.474107325E-1
1.076039287E0,5.780386925E-1,-1.070589945E-1,-4.378233552E-1
1.078049443E0,5.737776160E-1,-1.262337416E-1,-4.314317703E-1
1.080059600E0,5.759081841E-1,-1.443432271E-1,-4.271707237E-1
1.082069756E0,5.748428702E-1,-1.528653353E-1,-4.239749312E-1
1.084079912E0,5.737776160E-1,-1.667137593E-1,-4.239749312E-1
1.086090068E0,5.748428702E-1,-1.763011366E-1,-4.261054695E-1
1.088100225E0,5.748428702E-1,-1.890842915E-1,-4.303665161E-1
1.090110381E0,5.759081841E-1,-1.976063997E-1,-4.356928170E-1
1.092120537E0,5.737776160E-1,-2.114548385E-1,-4.431496859E-1
1.094130693E0,5.695165992E-1,-2.284990549E-1,-4.527370334E-1
1.096140850E0,5.652555227E-1,-2.476737946E-1,-4.623244107E-1
1.098151006E0,5.609944463E-1,-2.689790726E-1,-4.751075804E-1
1.100161162E0,5.492765903E-1,-2.988064587E-1,-4.889560044E-1
1.102171318E0,5.375586748E-1,-3.307643533E-1,-5.049349666E-1
1.104181475E0,5.237102509E-1,-3.669833243E-1,-5.219792128E-1
1.106191683E0,5.109270811E-1,-4.000065029E-1,-5.411539078E-1
1.108201891E0,4.938828647E-1,-4.340949357E-1,-5.592634082E-1
1.110212100E0,4.757733643E-1,-4.628570378E-1,-5.784381628E-1
1.112222308E0,4.565986395E-1,-4.916191697E-1,-5.986781716E-1
1.114232516E0,4.374238849E-1,-5.203812718E-1,-6.114613414E-1
1.116242725E0,4.171838760E-1,-5.480781198E-1,-6.242445111E-1
1.118252933E0,3.969438672E-1,-5.757750273E-1,-6.380929351E-1
1.120263141E0,3.745733202E-1,-6.045371294E-1,-6.508761048E-1
1.122273350E0,3.500722647E-1,-6.290381551E-1,-6.636592746E-1
1.124283558E0,3.213101327E-1,-6.556697488E-1,-6.732466221E-1
1.126293766E0,2.978743315E-1,-6.801708341E-1,-6.849645376E-1
1.128303975E0,2.691122293E-1,-7.014760971E-1,-6.934866309E-1
1.130314183E0,2.424806356E-1,-7.185203433E-1,-7.009434700E-1
1.132324391E0,2.147837877E-1,-7.334340215E-1,-7.052045465E-1
1.134334600E0,1.892174482E-1,-7.472824454E-1,-7.084003091E-1
1.136344808E0,1.604553312E-1,-7.600656152E-1,-7.115961313E-1
1.138355016E0,1.348890066E-1,-7.685877085E-1,-7.094655633E-1
1.140365225E0,1.061268896E-1,-7.824361324E-1,-7.073350549E-1
1.142375433E0,7.949529588E-2,-7.941540480E-1,-7.030739784E-1
1.144385641E0,4.860265180E-2,-8.058719635E-1,-6.998782158E-1
1.146395850E0,2.303632535E-2,-8.186551332E-1,-6.966823936E-1
1.148406058E0,-2.530001104E-3,-8.314382434E-1,-6.934866309E-1
1.150416266E0,-2.916159295E-2,-8.388951421E-1,-6.902908683E-1
1.152426475E0,-5.366265774E-2,-8.431561589E-1,-6.870950460E-1
1.154436683E0,-7.922898233E-2,-8.442214131E-1,-6.838992834E-1
1.156446891E0,-1.005342528E-1,-8.410256505E-1,-6.796382070E-1
1.158457100E0,-1.218395308E-1,-8.335688114E-1,-6.753771305E-1
1.160467308E0,-1.431448013E-1,-8.250467181E-1,-6.700508595E-1
1.162477516E0,-1.623195410E-1,-8.133288026E-1,-6.615287066E-1
1.164487725E0,-1.804290265E-1,-8.037413955E-1,-6.551371217E-1
1.166497933E0,-1.974732429E-1,-7.920235395E-1,-6.466150284E-1
1.168508141E0,-2.155827284E-1,-7.781751156E-1,-6.370276809E-1
1.170518350E0,-2.283658981E-1,-7.643266916E-1,-6.285055280E-1
1.172528558E0,-2.422143221E-1,-7.483476996E-1,-6.199834347E-1
1.174538766E0,-2.518016994E-1,-7.313035131E-1,-6.103960872E-1
1.176548975E0,-2.613890767E-1,-7.142592669E-1,-6.018739343E-1
1.178559183E0,-2.699111700E-1,-6.972150803E-1,-5.933518410E-1
1.180569391E0,-2.731069624E-1,-6.769750714E-1,-5.858950019E-1
1.182579600E0,-2.741722167E-1,-6.567350626E-1,-5.795034170E-1
1.184589808E0,-2.763027549E-1,-6.343644857E-1,-5.731118321E-1
1.186600016E0,-2.752375007E-1,-6.141244769E-1,-5.645897388E-1
1.188610225E0,-2.699111700E-1,-5.917539597E-1,-5.571328998E-1
1.190620381E0,-2.656501234E-1,-5.693834424E-1,-5.496760607E-1
1.192630537E0,-2.581932843E-1,-5.448823571E-1,-5.422192216E-1
1.194640693E0,-2.507364154E-1,-5.182507634E-1,-5.358276367E-1
1.196650850E0,-2.400837988E-1,-4.926844239E-1,-5.273054838E-1
1.198661006E0,-2.283658981E-1,-4.617917836E-1,-5.198486447E-1
1.200671162E0,-2.187785208E-1,-4.319643974E-1,-5.123918056E-1
1.202681318E0,-2.049300969E-1,-4.021370113E-1,-5.049349666E-1
1.204691475E0,-1.921469271E-1,-3.701791167E-1,-4.964128435E-1
1.206701631E0,-1.772332340E-1,-3.392864764E-1,-4.878907502E-1
1.208711787E0,-1.655153334E-1,-3.115896285E-1,-4.783033729E-1
1.210721943E0,-1.506016403E-1,-2.828274965E-1,-4.655202031E-1
1.212732100E0,-1.356879622E-1,-2.551306486E-1,-4.548675716E-1
1.214742256E0,-1.218395308E-1,-2.316948473E-1,-4.431496859E-1
1.216752412E0,-1.069258377E-1,-2.082590461E-1,-4.303665161E-1
1.218762568E0,-9.094688296E-2,-1.880190372E-1,-4.165180922E-1
1.220772725E0,-7.603318989E-2,-1.688442826E-1,-4.037349224E-1
1.222782881E0,-5.792371184E-2,-1.486042738E-1,-3.920170069E-1
1.224793037E0,-4.087949172E-2,-1.315600574E-1,-3.771033287E-1
1.226803193E0,-2.277000993E-2,-1.123853177E-1,-3.611243665E-1
1.228813350E0,-3.595264861E-3,-9.427583218E-2,-3.472759426E-1
1.230823506E0,1.664474420E-2,-7.829687744E-2,-3.323622644E-1
1.232833662E0,3.795001656E-2,-6.551371515E-2,-3.153180480E-1
1.234843818E0,5.925529078E-2,-5.486107618E-2,-2.982738316E-1
1.236853975E0,8.162582666E-2,-5.060002208E-2,-2.822948694E-1
1.238864131E0,1.018658355E-1,-4.740423337E-2,-2.620548606E-1
1.240874287E0,1.231711060E-1,-4.846949503E-2,-2.482064217E-1
1.242884443E0,1.423458606E-1,-5.379581451E-2,-2.332927436E-1
1.244894600E0,1.604553312E-1,-5.805686861E-2,-2.194443047E-1
1.246904756E0,1.785648167E-1,-6.764423847E-2,-2.066611499E-1
1.248914912E0,1.934785098E-1,-7.829687744E-2,-1.928127259E-1
1.250925068E0,2.073269337E-1,-9.214530140E-2,-1.768337637E-1
1.252935225E0,2.201101035E-1,-1.081242561E-1,-1.597895473E-1
1.254945381E0,2.275669426E-1,-1.251684725E-1,-1.352884769E-1
1.256955537E0,2.371543199E-1,-1.454084814E-1,-1.065263674E-1
1.258965693E0,2.446111590E-1,-1.699095517E-1,-7.350318879E-2
1.260975850E0,2.520680130E-1,-1.954758763E-1,-3.515370190E-2
1.262986006E0,2.563290596E-1,-2.221074700E-1,1.065263641E-3
1.264996162E0,2.616553903E-1,-2.498043180E-1,3.834949061E-2
1.267006318E0,2.648511827E-1,-2.785664499E-1,7.350318879E-2
1.269016475E0,2.691122293E-1,-3.083938360E-1,1.033305749E-1
1.271026631E0,2.723080218E-1,-3.328948915E-1,1.267663687E-1
1.273036787E0,2.765690684E-1,-3.595264852E-1,1.459411234E-1
1.275046943E0,2.786996067E-1,-3.808317482E-1,1.597895473E-1
1.277057100E0,2.829606533E-1,-4.042675495E-1,1.683116555E-1
1.279067256E0,2.882869840E-1,-4.255728126E-1,1.736379713E-1
1.281077412E0,2.925480306E-1,-4.479433596E-1,1.715074480E-1
1.283087568E0,2.978743315E-1,-4.671181142E-1,1.629853398E-1
1.285097725E0,3.021354079E-1,-4.894886315E-1,1.523326933E-1
1.287107881E0,3.063964546E-1,-5.118591785E-1,1.363537461E-1
1.289118037E0,3.127880394E-1,-5.331644416E-1,1.171789989E-1
1.291128193E0,3.181143403E-1,-5.512739420E-1,9.267793596E-2
1.293138350E0,3.234406710E-1,-5.683181286E-1,6.604634225E-2
1.295148506E0,3.308975101E-1,-5.832318664E-1,3.728422895E-2
1.297158662E0,3.340933025E-1,-5.981455445E-1,5.326318089E-3
1.299168818E0,3.383543491E-1,-6.056023836E-1,-2.663159184E-2
1.301178975E0,3.383543491E-1,-6.141244769E-1,-5.858949944E-2
1.303189131E0,3.426154256E-1,-6.205160618E-1,-8.948214352E-2
1.305199287E0,3.436806798E-1,-6.279729009E-1,-1.193095297E-1
1.307209443E0,3.468764722E-1,-6.290381551E-1,-1.502021700E-1
1.309219652E0,3.468764722E-1,-6.311687231E-1,-1.789642870E-1
1.311229860E0,3.468764722E-1,-6.311687231E-1,-2.055958807E-1
1.313240068E0,3.436806798E-1,-6.290381551E-1,-2.300969511E-1
1.315250277E0,3.436806798E-1,-6.237118840E-1,-2.524674833E-1
1.317260485E0,3.426154256E-1,-6.173202991E-1,-2.705769539E-1
1.319270693E0,3.404848874E-1,-6.109287143E-1,-2.897517085E-1
1.321280902E0,3.383543491E-1,-6.013413072E-1,-3.067959249E-1
1.323291110E0,3.351585865E-1,-5.896234512E-1,-3.227748871E-1
1.325301318E0,3.340933025E-1,-5.768402815E-1,-3.344927728E-1
1.327311527E0,3.330280483E-1,-5.640571117E-1,-3.430148959E-1
1.329321735E0,3.340933025E-1,-5.502086878E-1,-3.483411968E-1
1.331331943E0,3.340933025E-1,-5.384907722E-1,-3.515369892E-1
1.333342152E0,3.340933025E-1,-5.267728567E-1,-3.494064808E-1
1.335352360E0,3.372890949E-1,-5.171855092E-1,-3.483411968E-1
1.337362568E0,3.383543491E-1,-5.065328479E-1,-3.430148959E-1
1.339372777E0,3.404848874E-1,-4.958802164E-1,-3.376885653E-1
1.341382985E0,3.447459340E-1,-4.894886315E-1,-3.302317262E-1
1.343393193E0,3.479417264E-1,-4.809665382E-1,-3.249054253E-1
1.345403402E0,3.511375189E-1,-4.724444151E-1,-3.153180480E-1
1.347413610E0,3.596596420E-1,-4.628570378E-1,-3.078611791E-1
1.349423818E0,3.639206886E-1,-4.532696903E-1,-3.014696240E-1
1.351434027E0,3.692470193E-1,-4.404865205E-1,-2.918822467E-1
1.353444235E0,3.745733202E-1,-4.319643974E-1,-2.833601236E-1
1.355454443E0,3.777691126E-1,-4.223770201E-1,-2.737727463E-1
1.357464652E0,3.820301592E-1,-4.149201810E-1,-2.620548606E-1
1.359474860E0,3.841606975E-1,-4.127896726E-1,-2.450106442E-1
1.361485068E0,3.841606975E-1,-4.106591344E-1,-2.247706354E-1
1.363495277E0,3.788343966E-1,-4.085285962E-1,-2.045306265E-1
1.365505485E0,3.788343966E-1,-4.095938802E-1,-1.832253486E-1
1.367515693E0,3.745733202E-1,-4.085285962E-1,-1.651158631E-1
1.369525902E0,3.713775277E-1,-4.106591344E-1,-1.448758543E-1
1.371536110E0,3.671164811E-1,-4.063980877E-1,-1.299621612E-1
1.373546318E0,3.617901504E-1,-4.063980877E-1,-1.171789989E-1
1.375556527E0,3.564638495E-1,-4.000065029E-1,-1.054610983E-1
1.377566735E0,3.511375189E-1,-3.957454562E-1,-9.693899006E-2
1.379576943E0,3.458112180E-1,-3.882885873E-1,-9.054741263E-2
1.381587152E0,3.426154256E-1,-3.787012100E-1,-8.522108942E-2
1.383597360E0,3.394196332E-1,-3.648527861E-1,-8.202529699E-2
1.385607568E0,3.394196332E-1,-3.499391079E-1,-8.096003532E-2
1.387617777E0,3.383543491E-1,-3.307643533E-1,-7.989477366E-2
1.389627985E0,3.394196332E-1,-3.137201369E-1,-8.309056610E-2
1.391638193E0,3.447459340E-1,-2.934801280E-1,-8.841688186E-2
1.393648350E0,3.511375189E-1,-2.764359117E-1,-9.480846673E-2
1.395658506E0,3.564638495E-1,-2.593916953E-1,-9.906952083E-2
1.397668662E0,3.639206886E-1,-2.466085255E-1,-1.054610983E-1
1.399678818E0,3.724428117E-1,-2.338253707E-1,-1.129179448E-1
1.401688975E0,3.809649050E-1,-2.263685167E-1,-1.214400530E-1
1.403699131E0,3.884217441E-1,-2.210422009E-1,-1.288969070E-1
1.405709287E0,4.022701681E-1,-2.199769467E-1,-1.374190152E-1
1.407719443E0,4.107922912E-1,-2.167811543E-1,-1.470063776E-1
1.409729600E0,4.193144143E-1,-2.178464085E-1,-1.555284858E-1
1.411739756E0,4.299670458E-1,-2.146506310E-1,-1.640505940E-1
1.413749912E0,4.406196773E-1,-2.146506310E-1,-1.736379713E-1
1.415760068E0,4.480765164E-1,-2.146506310E-1,-1.832253486E-1
1.417770225E0,4.587291479E-1,-2.125200927E-1,-1.928127259E-1
1.419780381E0,4.683165252E-1,-2.125200927E-1,-2.055958807E-1
1.421790537E0,4.757733643E-1,-2.114548385E-1,-2.151832581E-1
1.423800693E0,4.832302332E-1,-2.103895694E-1,-2.258358896E-1
1.425810850E0,4.874912798E-1,-2.093243003E-1,-2.375537902E-1
1.427821006E0,4.928175807E-1,-2.082590461E-1,-2.492716908E-1
1.429831162E0,4.970786572E-1,-2.039979845E-1,-2.620548606E-1
1.431841318E0,5.013396740E-1,-2.018674612E-1,-2.727074921E-1
1.433851475E0,5.024049878E-1,-1.944106072E-1,-2.854906619E-1
1.435861631E0,5.045354962E-1,-1.869537681E-1,-2.950780392E-1
1.437871787E0,5.045354962E-1,-1.731053442E-1,-3.057306707E-1
1.439881943E0,5.056007504E-1,-1.603221744E-1,-3.153180480E-1
1.441892100E0,5.034702420E-1,-1.422126889E-1,-3.238401413E-1
1.443902256E0,5.024049878E-1,-1.230379492E-1,-3.312969804E-1
1.445912412E0,5.002744198E-1,-1.027979404E-1,-3.387538493E-1
1.447922568E0,5.002744198E-1,-7.723161578E-2,-3.451454341E-1
1.449932725E0,4.981439114E-1,-5.273054913E-2,-3.472759426E-1
1.451942881E0,5.002744198E-1,-2.822948620E-2,-3.526022732E-1
1.453953037E0,5.002744198E-1,-5.326318205E-4,-3.557980657E-1
1.455963193E0,5.024049878E-1,2.396843210E-2,-3.579285741E-1
1.457973350E0,5.045354962E-1,5.166528746E-2,-3.579285741E-1
1.459983506E0,5.087965727E-1,7.723161578E-2,-3.568633199E-1
1.461993662E0,5.130575895E-1,1.017326787E-1,-3.536675274E-1
1.464003818E0,5.173186660E-1,1.262337416E-1,-3.526022732E-1
1.466013975E0,5.269060135E-1,1.518000662E-1,-3.483411968E-1
1.468024131E0,5.332975984E-1,1.752358675E-1,-3.430148959E-1
1.470034287E0,5.396891832E-1,1.976063997E-1,-3.376885653E-1
1.472044443E0,5.482112765E-1,2.199769467E-1,-3.334275186E-1
1.474054600E0,5.546028614E-1,2.444780022E-1,-3.281011879E-1
1.476064756E0,5.673860312E-1,2.668485343E-1,-3.238401413E-1
1.478074912E0,5.737776160E-1,2.881538272E-1,-3.206443489E-1
1.480085068E0,5.833650231E-1,3.073285520E-1,-3.163833022E-1
1.482095225E0,5.929523706E-1,3.296990991E-1,-3.110569715E-1
1.484105381E0,6.025397182E-1,3.488738537E-1,-3.067959249E-1
1.486115537E0,6.099966168E-1,3.712443709E-1,-3.057306707E-1
1.488125693E0,6.185187101E-1,3.914843798E-1,-2.993390858E-1
1.490135850E0,6.281060576E-1,4.127896726E-1,-2.972085476E-1
1.492146006E0,6.366282105E-1,4.351601899E-1,-2.918822467E-1
1.494156162E0,6.440850496E-1,4.554001987E-1,-2.865559161E-1
1.496166318E0,6.536723971E-1,4.799012840E-1,-2.833601236E-1
1.498176475E0,6.611292362E-1,4.990760088E-1,-2.780338228E-1
1.500186631E0,6.664555669E-1,5.225118399E-1,-2.737727463E-1
1.502196787E0,6.749776602E-1,5.416865349E-1,-2.684464455E-1
1.504206943E0,6.824344993E-1,5.629918575E-1,-2.663159072E-1
1.506217100E0,6.877608299E-1,5.789707899E-1,-2.609896064E-1
1.508227256E0,6.909566522E-1,5.928192139E-1,-2.588590682E-1
1.510237464E0,6.930871606E-1,6.034718752E-1,-2.545980215E-1
1.512247673E0,6.898913383E-1,6.109287143E-1,-2.514022291E-1
1.514257881E0,6.877608299E-1,6.109287143E-1,-2.471411675E-1
1.516268089E0,6.813692451E-1,6.109287143E-1,-2.450106442E-1
1.518278298E0,6.717818975E-1,6.056023836E-1,-2.439453751E-1
1.520288506E0,6.621944904E-1,5.992107987E-1,-2.396843135E-1
1.522298714E0,6.472808123E-1,5.885581374E-1,-2.364885211E-1
1.524308923E0,6.313018799E-1,5.779055357E-1,-2.322274745E-1
1.526319131E0,6.121271253E-1,5.661876202E-1,-2.300969511E-1
1.528329339E0,5.918871164E-1,5.544697046E-1,-2.279664129E-1
1.530339548E0,5.684512854E-1,5.438171029E-1,-2.247706354E-1
1.532349756E0,5.418196917E-1,5.331644416E-1,-2.237053663E-1
1.534359964E0,5.183839202E-1,5.193160176E-1,-2.237053663E-1
1.536370173E0,4.917523265E-1,5.086634159E-1,-2.226400971E-1
1.538380381E0,4.661859870E-1,4.969455004E-1,-2.215748429E-1
1.540390589E0,4.331628382E-1,4.841623306E-1,-2.226400971E-1
1.542400798E0,4.054659605E-1,4.756402075E-1,-2.226400971E-1
1.544411006E0,3.767038584E-1,4.703139067E-1,-2.269011587E-1
1.546421214E0,3.447459340E-1,4.628570378E-1,-2.290316820E-1
1.548431423E0,3.170490861E-1,4.564654827E-1,-2.300969511E-1
1.550441631E0,2.882869840E-1,4.543349445E-1,-2.322274745E-1
1.552451839E0,2.605901062E-1,4.543349445E-1,-2.354232669E-1
1.554462048E0,2.307627350E-1,4.543349445E-1,-2.375537902E-1
1.556472256E0,2.030658871E-1,4.564654827E-1,-2.407495826E-1
1.558482464E0,1.743037701E-1,4.575307369E-1,-2.450106442E-1
1.560492673E0,1.466069072E-1,4.660528302E-1,-2.482064217E-1
1.562502881E0,1.199753210E-1,4.735096991E-1,-2.514022291E-1
1.564513089E0,9.867004305E-2,4.916191697E-1,-2.609896064E-1
1.566523298E0,9.121319652E-2,5.150549412E-1,-2.748380303E-1
1.568533506E0,6.777740270E-2,5.171855092E-1,-2.705769539E-1
1.570543714E0,4.753739014E-2,5.235770941E-1,-2.652506530E-1
1.572553923E0,3.155843541E-2,5.299686790E-1,-2.545980215E-1
1.574564131E0,1.131842658E-2,5.320991874E-1,-2.364885211E-1
1.576574339E0,-4.660528619E-3,5.395560265E-1,-2.194443047E-1
1.578584548E0,-2.170474641E-2,5.544697046E-1,-1.970737725E-1
1.580594756E0,-3.235738352E-2,5.747097135E-1,-1.789642870E-1
1.582604964E0,-4.301001877E-2,6.034718752E-1,-1.597895473E-1
1.584615173E0,-5.046686530E-2,6.364950538E-1,-1.406148076E-1
1.586625381E0,-5.259739235E-2,6.695181727E-1,-1.214400530E-1
1.588635589E0,-5.472791940E-2,6.993455887E-1,-1.065263674E-1
1.590645798E0,-5.259739235E-2,7.270424366E-1,-9.267793596E-2
1.592656006E0,-5.153212696E-2,7.504782081E-1,-8.096003532E-2
1.594666162E0,-4.833633825E-2,7.685877085E-1,-7.137266546E-2
1.596676318E0,-4.301001877E-2,7.813708782E-1,-6.498108059E-2
1.598686475E0,-3.448791057E-2,7.920235395E-1,-5.752423778E-2
1.600696631E0,-2.490053698E-2,7.973498106E-1,-5.432844535E-2
1.602706787E0,-1.744369231E-2,7.973498106E-1,-5.113265663E-2
1.604716943E0,-3.595264861E-3,7.994803786E-1,-4.687159881E-2
1.606727100E0,7.057371549E-3,7.994803786E-1,-4.367581010E-2
1.608737256E0,2.090579830E-2,8.005456328E-1,-4.154528305E-2
1.610747412E0,3.581948951E-2,8.016108871E-1,-3.621896356E-2
1.612757568E0,5.073318258E-2,8.037413955E-1,-3.302317113E-2
1.614767725E0,6.138581783E-2,8.016108871E-1,-3.195790946E-2
1.616777881E0,6.564687192E-2,7.835013866E-1,-3.621896356E-2
1.618788037E0,5.712476373E-2,7.313035131E-1,-4.474107176E-2
1.620798193E0,2.623211779E-2,6.556697488E-1,-6.604634225E-2
1.622808350E0,-1.744369231E-2,5.725792050E-1,-9.374319762E-2
1.624818506E0,-5.579318479E-2,5.150549412E-1,-1.171789989E-1
1.626828662E0,-7.816372067E-2,4.894886315E-1,-1.299621612E-1
1.628838818E0,-8.455529809E-2,4.820317924E-1,-1.299621612E-1
1.630848975E0,-8.775109053E-2,4.713791609E-1,-1.225053221E-1
1.632859131E0,-8.562056720E-2,4.596612751E-1,-1.107874215E-1
1.634869287E0,-8.455529809E-2,4.447475672E-1,-9.800425172E-2
1.636879443E0,-8.775109053E-2,4.234423041E-1,-8.948214352E-2
1.638889600E0,-9.520793706E-2,4.000065029E-1,-7.989477366E-2
1.640899756E0,-1.037300453E-1,3.733749092E-1,-7.563371956E-2
1.642909912E0,-1.186437383E-1,3.446127772E-1,-7.669898123E-2
1.644920068E0,-1.410142779E-1,3.147853911E-1,-7.563371956E-2
1.646930225E0,-1.655153334E-1,2.838927507E-1,-8.096003532E-2
1.648940381E0,-1.900164038E-1,2.530001104E-1,-8.522108942E-2
1.650950537E0,-2.198437899E-1,2.242379934E-1,-8.948214352E-2
1.652960693E0,-2.486059070E-1,1.965411454E-1,-9.587372839E-2
1.654970850E0,-2.784332931E-1,1.709748209E-1,-1.001347825E-1
1.656981006E0,-3.071953952E-1,1.486042738E-1,-1.075916290E-1
1.658991162E0,-3.380880356E-1,1.262337416E-1,-1.118526831E-1
1.661001318E0,-3.689807057E-1,1.038632020E-1,-1.150484756E-1
1.663011475E0,-4.020038545E-1,8.681898564E-2,-1.203747913E-1
1.665021631E0,-4.307659864E-1,6.870950758E-2,-1.246358454E-1
1.667031787E0,-4.637891650E-1,5.592634156E-2,-1.299621612E-1
1.669041943E0,-4.914860129E-1,3.888212144E-2,-1.331579536E-1
1.671052100E0,-5.213133693E-1,2.183790505E-2,-1.374190152E-1
1.673062256E0,-5.479449630E-1,5.858949851E-3,-1.416800618E-1
1.675072412E0,-5.713807940E-1,-6.924213842E-3,-1.459411234E-1
1.677082568E0,-5.937513113E-1,-2.290316857E-2,-1.502021700E-1
1.679092725E0,-6.129260659E-1,-3.994738683E-2,-1.523326933E-1
1.681102881E0,-6.289049983E-1,-5.699160323E-2,-1.565937549E-1
1.683113037E0,-6.448839903E-1,-7.297056168E-2,-1.597895473E-1
1.685123193E0,-6.566019058E-1,-8.894951642E-2,-1.629853398E-1
1.687133350E0,-6.640587449E-1,-1.027979404E-1,-1.651158631E-1
1.689143506E0,-6.704503298E-1,-1.155811027E-1,-1.661811322E-1
1.691153662E0,-6.704503298E-1,-1.315600574E-1,-1.715074480E-1
1.693163818E0,-6.715155840E-1,-1.443432271E-1,-1.736379713E-1
1.695170745E0,-6.704503298E-1,-1.560611278E-1,-1.736379713E-1
1.697177673E0,-6.651239991E-1,-1.709748209E-1,-1.725727171E-1
1.699185016E0,-6.597976685E-1,-1.848232448E-1,-1.715074480E-1
1.701192881E0,-6.523408294E-1,-2.008021921E-1,-1.661811322E-1
1.703201318E0,-6.459492445E-1,-2.125200927E-1,-1.597895473E-1
1.705210381E0,-6.384924054E-1,-2.242379934E-1,-1.533979625E-1
1.707220068E0,-6.310355663E-1,-2.402169555E-1,-1.438105851E-1
1.709230381E0,-6.214481592E-1,-2.540653646E-1,-1.363537461E-1
1.711241318E0,-6.150565743E-1,-2.700443268E-1,-1.288969070E-1
1.713252829E0,-6.075997353E-1,-2.796317041E-1,-1.203747913E-1
1.715264808E0,-6.001428962E-1,-2.881538272E-1,-1.107874215E-1
1.717277152E0,-5.916208029E-1,-2.977411747E-1,-1.033305749E-1
1.719289756E0,-5.841639638E-1,-3.020022511E-1,-9.587372839E-2
1.721302516E0,-5.735113025E-1,-3.051980436E-1,-9.054741263E-2
1.723315329E0,-5.639239550E-1,-3.073285520E-1,-8.309056610E-2
1.725327777E0,-5.522060394E-1,-3.041327596E-1,-7.669898123E-2
1.727337933E0,-5.415533781E-1,-2.977411747E-1,-7.137266546E-2
1.729348089E0,-5.266396999E-1,-2.924148738E-1,-6.604634225E-2
1.731358245E0,-5.127912760E-1,-2.860232890E-1,-6.178529188E-2
1.733368402E0,-4.957470596E-1,-2.775011659E-1,-5.752423778E-2
1.735378558E0,-4.850944281E-1,-2.689790726E-1,-5.219791830E-2
1.737388714E0,-4.680502117E-1,-2.561959028E-1,-5.006739125E-2
1.739398870E0,-4.499407411E-1,-2.466085255E-1,-4.580633715E-2
1.741409027E0,-4.350270331E-1,-2.327601016E-1,-4.474107176E-2
1.743419183E0,-4.190480709E-1,-2.199769467E-1,-3.941475600E-2
1.745429339E0,-4.009386003E-1,-2.082590461E-1,-3.515370190E-2
1.747439495E0,-3.828291297E-1,-1.997369379E-1,-3.089264594E-2
1.749449652E0,-3.636543751E-1,-1.773663908E-1,-2.450106293E-2
1.751459808E0,-2.731069624E-1,-5.805686861E-2,-1.597895473E-2
1.753469964E0,-2.816290855E-1,-1.102547869E-1,-1.171789970E-2
1.755480120E0,-2.560627460E-1,-1.081242561E-1,-1.171789970E-2
1.757490277E0,-2.155827284E-1,-7.723161578E-2,-1.065263618E-2
1.759500433E0,-1.985385120E-1,-6.977476925E-2,-7.456845604E-3
1.761510589E0,-1.719069183E-1,-6.444845349E-2,-1.065263618E-2
1.763520745E0,-1.474058628E-1,-5.486107618E-2,-1.065263618E-2
1.765530902E0,-1.271658540E-1,-4.953476042E-2,-1.065263618E-2
1.767541058E0,-1.090563685E-1,-4.527370632E-2,-1.065263618E-2
1.769551214E0,-9.414267540E-2,-3.568633273E-2,-9.587372653E-3
1.771561370E0,-8.029424399E-2,-3.355580568E-2,-8.522109129E-3
1.773571527E0,-7.070687413E-2,-3.355580568E-2,-1.171789970E-2
1.775581683E0,-6.111950055E-2,-3.036001325E-2,-1.065263618E-2
1.777591839E0,-5.685844645E-2,-3.355580568E-2,-1.065263618E-2
1.779601995E0,-5.579318479E-2,-3.675159439E-2,-1.171789970E-2
1.781612152E0,-5.579318479E-2,-3.994738683E-2,-1.065263618E-2
1.783622308E0,-5.898897350E-2,-4.207791388E-2,-1.278316416E-2
1.785632464E0,-6.751108170E-2,-4.314317927E-2,-1.278316416E-2
1.787642620E0,-7.283740491E-2,-4.314317927E-2,-1.917474531E-2
1.789652777E0,-8.135951310E-2,-4.101264849E-2,-2.237053588E-2
1.791662933E0,-8.988162130E-2,-3.888212144E-2,-2.982738242E-2
1.793673089E0,-9.946899116E-2,-3.888212144E-2,-3.089264594E-2
1.795683245E0,-1.111868918E-1,-3.888212144E-2,-4.048001766E-2
1.797693402E0,-1.175784767E-1,-3.568633273E-2,-4.474107176E-2
1.799703558E0,-1.292963773E-1,-3.355580568E-2,-5.006739125E-2
1.801713714E0,-1.420795321E-1,-3.462106735E-2,-5.539371073E-2
1.803723870E0,-1.548627019E-1,-3.462106735E-2,-6.072002649E-2
1.805734027E0,-1.676458716E-1,-3.568633273E-2,-6.498108059E-2
1.807744183E0,-1.857553422E-1,-4.420844093E-2,-6.817687303E-2
1.809754339E0,-2.027995586E-1,-5.379581451E-2,-7.350318879E-2
1.811764495E0,-2.283658981E-1,-7.084003091E-2,-7.563371956E-2
1.813774652E0,-2.549974918E-1,-8.681898564E-2,-8.309056610E-2
1.815784808E0,-2.880206704E-1,-1.038632020E-1,-8.628635854E-2
1.817794964E0,-3.178480268E-1,-1.113200486E-1,-9.374319762E-2
1.819805120E0,-3.455449045E-1,-1.219726875E-1,-1.001347825E-1
1.821815277E0,-3.764375448E-1,-1.358211190E-1,-1.065263674E-1
1.823825433E0,-4.009386003E-1,-1.518000662E-1,-1.139832065E-1
1.825835589E0,-4.286354482E-1,-1.731053442E-1,-1.182442605E-1
1.827845745E0,-4.584628344E-1,-1.965411454E-1,-1.257011145E-1
1.829855902E0,-4.861596823E-1,-2.189116776E-1,-1.320926845E-1
1.831866058E0,-5.170523524E-1,-2.412822098E-1,-1.395495385E-1
1.833876214E0,-5.447492003E-1,-2.625874877E-1,-1.459411234E-1
1.835886370E0,-5.767071247E-1,-2.828274965E-1,-1.555284858E-1
1.837896527E0,-6.097303033E-1,-3.062632978E-1,-1.619200706E-1
1.839906683E0,-6.395576596E-1,-3.243727684E-1,-1.704421788E-1
1.841916839E0,-6.683197618E-1,-3.446127772E-1,-1.778990328E-1
1.843927048E0,-6.949513555E-1,-3.616569936E-1,-1.864211410E-1
1.845937256E0,-7.215829492E-1,-3.765707016E-1,-1.938779801E-1
1.847947464E0,-7.428882122E-1,-3.904191256E-1,-1.992042959E-1
1.849957673E0,-7.663240433E-1,-4.095938802E-1,-2.045306265E-1
1.851967881E0,-7.854987979E-1,-4.362254739E-1,-2.109221965E-1
1.853978089E0,-8.046735525E-1,-4.575307369E-1,-2.151832581E-1
1.855988298E0,-8.185219765E-1,-4.703139067E-1,-2.183790505E-1
1.857998506E0,-8.302398324E-1,-4.820317924E-1,-2.247706354E-1
1.860008714E0,-8.419577479E-1,-4.916191697E-1,-2.258358896E-1
1.862018923E0,-8.472840786E-1,-5.044023395E-1,-2.290316820E-1
1.864029131E0,-8.536756635E-1,-5.193160176E-1,-2.290316820E-1
1.866039339E0,-8.568714261E-1,-5.342296958E-1,-2.290316820E-1
1.868049548E0,-8.579366803E-1,-5.512739420E-1,-2.279664129E-1
1.870059756E0,-8.568714261E-1,-5.672528744E-1,-2.290316820E-1
1.872069964E0,-8.547409177E-1,-5.811012983E-1,-2.247706354E-1
1.874080173E0,-8.504798412E-1,-5.960150361E-1,-2.237053663E-1
1.876090381E0,-8.430230021E-1,-6.045371294E-1,-2.162485123E-1
1.878100589E0,-8.334356546E-1,-6.087981462E-1,-2.087916732E-1
1.880110798E0,-8.227829933E-1,-6.087981462E-1,-2.013348341E-1
1.882121006E0,-8.110650778E-1,-6.077328920E-1,-1.906821877E-1
1.884131214E0,-7.950861454E-1,-6.045371294E-1,-1.810948253E-1
1.886141423E0,-7.801724672E-1,-5.970802903E-1,-1.683116555E-1
1.888151631E0,-7.599324584E-1,-5.864276290E-1,-1.544632316E-1
1.890161839E0,-7.418229580E-1,-5.736444592E-1,-1.406148076E-1
1.892172048E0,-7.194524407E-1,-5.576655269E-1,-1.257011145E-1
1.894182256E0,-6.960166097E-1,-5.395560265E-1,-1.107874215E-1
1.896192464E0,-6.715155840E-1,-5.193160176E-1,-9.587372839E-2
1.898202673E0,-6.448839903E-1,-4.969455004E-1,-7.882951200E-2
1.900212881E0,-6.182523966E-1,-4.745749533E-1,-6.178529188E-2
1.902223089E0,-5.916208029E-1,-4.490086138E-1,-4.580633715E-2
1.904233298E0,-5.649892092E-1,-4.213117659E-1,-3.195790946E-2
1.906243506E0,-5.383576155E-1,-3.904191256E-1,-1.704421826E-2
1.908253714E0,-5.106607676E-1,-3.605917394E-1,-1.065263641E-3
1.910263923E0,-4.850944281E-1,-3.243727684E-1,1.171789970E-2
1.912274131E0,-4.573975801E-1,-2.934801280E-1,2.556632832E-2
1.914284339E0,-4.328965247E-1,-2.604569495E-1,3.728422895E-2
1.916294548E0,-4.062649310E-1,-2.242379934E-1,4.793686420E-2
1.918304756E0,-3.860249221E-1,-1.933453530E-1,5.858949944E-2
1.920314964E0,-3.647196293E-1,-1.592569202E-1,6.817687303E-2
1.922325173E0,-3.434143662E-1,-1.251684725E-1,7.669898123E-2
1.924335381E0,-3.231743574E-1,-9.001477808E-2,8.415582776E-2
1.926345589E0,-3.082606792E-1,-6.018739566E-2,9.054741263E-2
1.928355798E0,-2.933469713E-1,-3.249054030E-2,9.800425172E-2
1.930365954E0,-2.794985473E-1,-1.118526794E-2,1.065263674E-1
1.932376110E0,-2.656501234E-1,9.054740891E-3,1.129179448E-1
1.934386266E0,-2.539322078E-1,2.609895915E-2,1.182442605E-1
1.936396423E0,-2.432795912E-1,3.994738683E-2,1.225053221E-1
1.938406579E0,-2.315616906E-1,5.060002208E-2,1.257011145E-1
1.940416735E0,-2.230395675E-1,6.231792271E-2,1.288969070E-1
1.942426891E0,-2.177132517E-1,7.084003091E-2,1.267663687E-1
1.944437048E0,-2.091911435E-1,7.936213911E-2,1.267663687E-1
1.946447204E0,-2.070606202E-1,8.681898564E-2,1.246358454E-1
1.948457360E0,-2.017343044E-1,9.640636295E-2,1.214400530E-1
1.950467516E0,-1.996037811E-1,1.006674170E-1,1.171789989E-1
1.952477673E0,-1.974732429E-1,1.070589945E-1,1.118526831E-1
1.954487829E0,-1.932121962E-1,1.123853177E-1,1.054610983E-1
1.956497985E0,-1.910816729E-1,1.155811027E-1,9.800425172E-2
1.958508141E0,-1.889511347E-1,1.166463718E-1,9.054741263E-2
1.960518298E0,-1.889511347E-1,1.187768951E-1,8.202529699E-2
1.962528454E0,-1.878858805E-1,1.198421568E-1,7.563371956E-2
1.964538610E0,-1.857553422E-1,1.187768951E-1,6.711161137E-2
1.966548766E0,-1.814942956E-1,1.187768951E-1,5.752423778E-2
1.968558923E0,-1.793637723E-1,1.155811027E-1,5.113265663E-2
1.970569079E0,-1.761679798E-1,1.113200486E-1,4.580633715E-2
1.972579235E0,-1.708416492E-1,1.091895252E-1,3.728422895E-2
1.974589391E0,-1.697763950E-1,1.059937328E-1,2.982738242E-2
1.976599548E0,-1.655153334E-1,1.006674170E-1,2.237053588E-2
1.978609704E0,-1.623195410E-1,9.534109384E-2,1.491369121E-2
1.980619860E0,-1.559279710E-1,9.321057051E-2,9.587372653E-3
1.982630016E0,-1.495363861E-1,9.001477808E-2,2.130527282E-3
1.984640173E0,-1.452753246E-1,8.468846232E-2,-3.195791040E-3
1.986650329E0,-1.431448013E-1,8.042740822E-2,-7.456845604E-3
1.988660485E0,-1.367532164E-1,7.510108501E-2,-1.065263618E-2
1.990670641E0,-1.324921697E-1,6.657897681E-2,-1.384842768E-2
1.992680798E0,-1.292963773E-1,5.912213027E-2,-1.597895473E-2
1.994690954E0,-1.250353158E-1,5.060002208E-2,-1.704421826E-2
1.996701110E0,-1.218395308E-1,4.207791388E-2,-1.810948178E-2
1.998711266E0,-1.207742617E-1,3.355580568E-2,-1.810948178E-2
2.000721423E0,-1.197090000E-1,2.609895915E-2,-1.810948178E-2
2.002731579E0,-1.197090000E-1,1.970737800E-2,-1.810948178E-2
2.004741735E0,-1.218395308E-1,1.118526794E-2,-1.704421826E-2
2.006751891E0,-1.250353158E-1,4.793686327E-3,-1.704421826E-2
2.008762048E0,-1.292963773E-1,2.663159044E-3,-1.491369121E-2
2.010772204E0,-1.335574239E-1,-1.597895520E-3,-1.704421826E-2
2.012782360E0,-1.420795321E-1,-4.793686327E-3,-1.597895473E-2
2.014792516E0,-1.495363861E-1,-5.858949851E-3,-1.704421826E-2
2.016802673E0,-1.591237634E-1,-1.012000442E-2,-1.704421826E-2
2.018812829E0,-1.729721874E-1,-1.864211448E-2,-1.704421826E-2
2.020822985E0,-1.825595498E-1,-2.822948620E-2,-1.917474531E-2
2.022833141E0,-1.932121962E-1,-3.568633273E-2,-2.024000883E-2
2.024843298E0,-2.091911435E-1,-3.781685978E-2,-2.237053588E-2
2.026853454E0,-2.241048366E-1,-3.781685978E-2,-2.237053588E-2
2.028863610E0,-2.411490530E-1,-3.568633273E-2,-2.237053588E-2
2.030873766E0,-2.592585385E-1,-3.142527863E-2,-2.450106293E-2
2.032883923E0,-2.773680091E-1,-2.716422267E-2,-2.237053588E-2
2.034894079E0,-2.997385561E-1,-2.290316857E-2,-2.024000883E-2
2.036904235E0,-3.178480268E-1,-2.183790505E-2,-1.704421826E-2
2.038914391E0,-3.348922431E-1,-2.183790505E-2,-1.384842768E-2
2.040924548E0,-3.540669978E-1,-2.609895915E-2,-9.587372653E-3
2.042934704E0,-3.721764982E-1,-3.036001325E-2,-4.261054564E-3
2.044944860E0,-3.913512230E-1,-3.568633273E-2,1.065263641E-3
2.046955068E0,-4.051996469E-1,-4.207791388E-2,5.326318089E-3
2.048965277E0,-4.222438633E-1,-5.273054913E-2,1.491369121E-2
2.050975485E0,-4.360923171E-1,-5.912213027E-2,2.024000883E-2
2.052985693E0,-4.499407411E-1,-6.870950758E-2,2.343579940E-2
2.054995902E0,-4.637891650E-1,-7.616634667E-2,2.982738242E-2
2.057006110E0,-4.744417965E-1,-8.681898564E-2,3.089264594E-2
2.059016318E0,-4.861596823E-1,-9.853688627E-2,3.515370190E-2
2.061026527E0,-4.914860129E-1,-1.091895252E-1,3.728422895E-2
2.063036735E0,-4.989428520E-1,-1.198421568E-1,4.048001766E-2
2.065046943E0,-5.053344369E-1,-1.315600574E-1,4.367581010E-2
2.067057152E0,-5.095955133E-1,-1.422126889E-1,4.367581010E-2
2.069067360E0,-5.127912760E-1,-1.507348120E-1,4.261054471E-2
2.071077568E0,-5.170523524E-1,-1.603221744E-1,4.154528305E-2
2.073087777E0,-5.202481151E-1,-1.709748209E-1,4.154528305E-2
2.075097985E0,-5.213133693E-1,-1.763011366E-1,3.941475600E-2
2.077108193E0,-5.223786831E-1,-1.858884990E-1,3.621896356E-2
2.079118402E0,-5.245091915E-1,-1.922800839E-1,3.408843651E-2
2.081128610E0,-5.223786831E-1,-1.976063997E-1,2.982738242E-2
2.083138818E0,-5.234439373E-1,-2.018674612E-1,2.556632832E-2
2.085149027E0,-5.213133693E-1,-2.061285079E-1,2.237053588E-2
2.087159235E0,-5.191828609E-1,-2.103895694E-1,1.704421826E-2
2.089169443E0,-5.191828609E-1,-2.125200927E-1,1.491369121E-2
2.091179652E0,-5.159870982E-1,-2.157158852E-1,1.384842768E-2
2.093189860E0,-5.106607676E-1,-2.178464085E-1,1.065263618E-2
2.095200068E0,-5.053344369E-1,-2.189116776E-1,1.065263618E-2
2.097210277E0,-5.000081062E-1,-2.210422009E-1,1.065263618E-2
2.099220485E0,-4.914860129E-1,-2.189116776E-1,9.587372653E-3
2.101230693E0,-4.840291739E-1,-2.199769467E-1,1.278316416E-2
2.103240902E0,-4.776375890E-1,-2.189116776E-1,1.491369121E-2
2.105251110E0,-4.669849575E-1,-2.210422009E-1,1.810948178E-2
2.107261318E0,-4.542017877E-1,-2.178464085E-1,2.343579940E-2
2.109271527E0,-4.435491562E-1,-2.167811543E-1,2.663159184E-2
2.111281735E0,-4.328965247E-1,-2.157158852E-1,2.982738242E-2
2.113291943E0,-4.190480709E-1,-2.114548385E-1,3.408843651E-2
2.115302152E0,-4.073301852E-1,-2.093243003E-1,3.834949061E-2
2.117312360E0,-3.945470154E-1,-2.039979845E-1,4.367581010E-2
2.119322568E0,-3.806985915E-1,-1.997369379E-1,4.793686420E-2
2.121332777E0,-3.647196293E-1,-1.944106072E-1,5.113265663E-2
2.123342985E0,-3.530017436E-1,-1.869537681E-1,5.432844535E-2
2.125353193E0,-3.402185738E-1,-1.805621833E-1,5.752423778E-2
2.127363402E0,-3.274354041E-1,-1.699095517E-1,5.858949944E-2
2.129373610E0,-3.125217259E-1,-1.624527127E-1,5.965476483E-2
2.131383766E0,-2.986733019E-1,-1.496695429E-1,6.178529188E-2
2.133393923E0,-2.858901322E-1,-1.390169114E-1,6.285055727E-2
2.135404079E0,-2.731069624E-1,-1.241032109E-1,6.391581893E-2
2.137414235E0,-2.613890767E-1,-1.091895252E-1,6.178529188E-2
2.139424391E0,-2.443448454E-1,-9.427583218E-2,6.285055727E-2
2.141434548E0,-2.304964215E-1,-7.829687744E-2,6.498108059E-2
2.143444704E0,-2.155827284E-1,-6.125266105E-2,6.498108059E-2
2.145454860E0,-1.974732429E-1,-4.420844093E-2,6.391581893E-2
2.147465016E0,-1.825595498E-1,-2.609895915E-2,6.391581893E-2
2.149475173E0,-1.644500792E-1,-1.118526794E-2,6.391581893E-2
2.151485329E0,-1.474058628E-1,5.858949851E-3,6.072002649E-2
2.153495485E0,-1.282311082E-1,2.396843210E-2,5.752423778E-2
2.155505641E0,-1.090563685E-1,4.314317927E-2,5.645897239E-2
2.157515798E0,-9.414267540E-2,6.125266105E-2,5.219791830E-2
2.159525954E0,-7.283740491E-2,7.936213911E-2,4.900212586E-2
2.161536110E0,-5.366265774E-2,9.534109384E-2,4.261054471E-2
2.163546266E0,-3.661843762E-2,1.113200486E-1,3.621896356E-2
2.165556423E0,-1.957421936E-2,1.251684725E-1,3.515370190E-2
2.167566579E0,2.796316985E-3,1.379516423E-1,2.982738242E-2
2.169576735E0,1.877527125E-2,1.486042738E-1,2.450106293E-2
2.171586891E0,3.901528195E-2,1.581916511E-1,2.130527236E-2
2.173597048E0,5.712476373E-2,1.645832360E-1,1.704421826E-2
2.175607204E0,7.416898012E-2,1.709748209E-1,1.065263618E-2
2.177617360E0,9.014793485E-2,1.741705984E-1,7.456845604E-3
2.179627516E0,1.082574204E-1,1.784316599E-1,3.195791040E-3
2.181637673E0,1.242363751E-1,1.805621833E-1,-2.130527282E-3
2.183647829E0,1.402153224E-1,1.816274524E-1,-4.261054564E-3
2.185657985E0,1.540637612E-1,1.848232448E-1,-9.587372653E-3
2.187668141E0,1.657816470E-1,1.880190372E-1,-1.171789970E-2
2.189678298E0,1.774995476E-1,1.890842915E-1,-1.384842768E-2
2.191688454E0,1.881521940E-1,1.912148297E-1,-1.810948178E-2
2.193698610E0,1.977395564E-1,1.912148297E-1,-1.810948178E-2
2.195708766E0,2.051964104E-1,1.933453530E-1,-1.810948178E-2
2.197718923E0,2.147837877E-1,1.901495606E-1,-1.704421826E-2
2.199729079E0,2.211753577E-1,1.901495606E-1,-1.384842768E-2
2.201739235E0,2.275669426E-1,1.880190372E-1,-1.278316416E-2
2.203749391E0,2.328932583E-1,1.869537681E-1,-1.065263618E-2
2.205759548E0,2.403501123E-1,1.837579757E-1,-7.456845604E-3
2.207769704E0,2.456764281E-1,1.805621833E-1,-3.195791040E-3
2.209779860E0,2.510027587E-1,1.784316599E-1,2.130527282E-3
2.211790016E0,2.563290596E-1,1.784316599E-1,5.326318089E-3
2.213800173E0,2.595248520E-1,1.752358675E-1,1.278316416E-2
2.215810329E0,2.648511827E-1,1.720400751E-1,1.917474531E-2
2.217820485E0,2.701774836E-1,1.720400751E-1,2.556632832E-2
2.219830641E0,2.755038142E-1,1.688442826E-1,3.302317113E-2
2.221840798E0,2.808301151E-1,1.667137593E-1,4.367581010E-2
2.223850954E0,2.861564457E-1,1.603221744E-1,5.219791830E-2
2.225861110E0,2.925480306E-1,1.528653353E-1,6.391581893E-2
2.227871266E0,2.989396155E-1,1.443432271E-1,7.456845790E-2
2.229881423E0,3.053312004E-1,1.315600574E-1,8.415582776E-2
2.231891579E0,3.127880394E-1,1.177116334E-1,9.161267430E-2
2.233901735E0,3.170490861E-1,1.038632020E-1,1.012000442E-1
2.235911891E0,3.245059252E-1,8.681898564E-2,1.086568907E-1
2.237922048E0,3.287670016E-1,6.870950758E-2,1.118526831E-1
2.239932204E0,3.330280483E-1,4.846949503E-2,1.171789989E-1
2.241942360E0,3.372890949E-1,2.609895915E-2,1.203747913E-1
2.243952516E0,3.426154256E-1,2.663159044E-3,1.193095297E-1
2.245962673E0,3.436806798E-1,-2.396843210E-2,1.182442605E-1
2.247972881E0,3.436806798E-1,-5.166528746E-2,1.171789989E-1
2.249983089E0,3.426154256E-1,-7.723161578E-2,1.150484756E-1
2.251993298E0,3.394196332E-1,-1.006674170E-1,1.107874215E-1
2.254003506E0,3.362238407E-1,-1.230379492E-1,1.054610983E-1
2.256013714E0,3.319627941E-1,-1.422126889E-1,9.906952083E-2
2.258023923E0,3.266364634E-1,-1.624527127E-1,9.267793596E-2
2.260034131E0,3.191796243E-1,-1.880190372E-1,8.628635854E-2
2.262044339E0,3.127880394E-1,-2.050632536E-1,7.669898123E-2
2.264054548E0,3.053312004E-1,-2.135853618E-1,6.711161137E-2
2.266064756E0,2.978743315E-1,-2.221074700E-1,5.752423778E-2
2.268074964E0,2.861564457E-1,-2.263685167E-1,5.006739125E-2
2.270085173E0,2.808301151E-1,-2.338253707E-1,4.261054471E-2
2.272095381E0,2.691122293E-1,-2.402169555E-1,3.408843651E-2
2.274105589E0,2.627206445E-1,-2.466085255E-1,2.769685537E-2
2.276115798E0,2.531332672E-1,-2.540653646E-1,2.343579940E-2
2.278126006E0,2.467416972E-1,-2.625874877E-1,1.917474531E-2
2.280136214E0,2.392848432E-1,-2.711096108E-1,1.491369121E-2
2.282146423E0,2.328932583E-1,-2.806969583E-1,1.171789970E-2
2.284156631E0,2.243711501E-1,-2.924148738E-1,7.456845604E-3
2.286166839E0,2.169143111E-1,-3.030675054E-1,2.130527282E-3
2.288177048E0,2.137185186E-1,-3.126548827E-1,-1.065263641E-3
2.290187256E0,2.051964104E-1,-3.222422600E-1,-8.522109129E-3
2.292197464E0,2.020006180E-1,-3.318296373E-1,-1.384842768E-2
2.294207673E0,1.945437789E-1,-3.446127772E-1,-2.130527236E-2
2.296217881E0,1.870869249E-1,-3.531349003E-1,-2.663159184E-2
2.298228089E0,1.806953400E-1,-3.584612012E-1,-3.621896356E-2
2.300238298E0,1.743037701E-1,-3.605917394E-1,-4.367581010E-2
2.302248506E0,1.647163928E-1,-3.595264852E-1,-5.113265663E-2
2.304258714E0,1.529984921E-1,-3.648527861E-1,-5.645897239E-2
2.306268923E0,1.444763839E-1,-3.680485785E-1,-6.178529188E-2
2.308279131E0,1.338237375E-1,-3.691138625E-1,-6.711161137E-2
2.310289339E0,1.231711060E-1,-3.680485785E-1,-7.137266546E-2
2.312299548E0,1.103879437E-1,-3.701791167E-1,-7.243792713E-2
2.314309756E0,9.973530471E-2,-3.680485785E-1,-7.243792713E-2
2.316319964E0,8.801741153E-2,-3.691138625E-1,-7.350318879E-2
2.318330173E0,7.310371846E-2,-3.691138625E-1,-6.924213469E-2
2.320340381E0,6.138581783E-2,-3.723096550E-1,-6.498108059E-2
2.322350589E0,4.860265180E-2,-3.776359558E-1,-6.391581893E-2
2.324360798E0,3.581948951E-2,-3.829622865E-1,-5.858949944E-2
2.326371006E0,2.410159074E-2,-3.914843798E-1,-5.326318368E-2
2.328381214E0,1.238369010E-2,-3.936149180E-1,-4.793686420E-2
2.330391423E0,-3.994738800E-4,-3.978759646E-1,-4.261054471E-2
2.332401579E0,-1.531316526E-2,-4.021370113E-1,-4.154528305E-2
2.334411735E0,-2.490053698E-2,-4.021370113E-1,-3.834949061E-2
2.336421891E0,-3.768370301E-2,-4.042675495E-1,-3.515370190E-2
2.338432048E0,-4.833633825E-2,-4.085285962E-1,-3.302317113E-2
2.340442204E0,-6.005423889E-2,-4.074633420E-1,-3.302317113E-2
2.342452360E0,-6.751108170E-2,-4.085285962E-1,-3.195790946E-2
2.344462516E0,-7.922898233E-2,-4.127896726E-1,-3.302317113E-2
2.346472673E0,-8.562056720E-2,-4.138549268E-1,-3.621896356E-2
2.348482829E0,-9.733846784E-2,-4.170507193E-1,-3.515370190E-2
2.350492985E0,-1.037300453E-1,-4.202465117E-1,-3.834949061E-2
2.352503141E0,-1.133174226E-1,-4.223770201E-1,-3.941475600E-2
2.354513298E0,-1.186437383E-1,-4.287686050E-1,-4.048001766E-2
2.356523454E0,-1.250353158E-1,-4.330296814E-1,-4.154528305E-2
2.358533610E0,-1.303616315E-1,-4.436823130E-1,-4.048001766E-2
2.360543766E0,-1.367532164E-1,-4.543349445E-1,-4.367581010E-2
2.362553923E0,-1.452753246E-1,-4.617917836E-1,-4.580633715E-2
2.364564079E0,-1.506016403E-1,-4.692486227E-1,-4.580633715E-2
2.366574235E0,-1.601890177E-1,-4.767054915E-1,-4.900212586E-2
2.368584391E0,-1.697763950E-1,-4.830970466E-1,-5.326318368E-2
2.370594548E0,-1.782985032E-1,-4.862928391E-1,-5.645897239E-2
2.372604704E0,-1.900164038E-1,-4.873581231E-1,-6.072002649E-2
2.374614860E0,-2.017343044E-1,-4.852275848E-1,-6.391581893E-2
2.376625016E0,-2.145174593E-1,-4.809665382E-1,-6.711161137E-2
2.378635173E0,-2.241048366E-1,-4.788360000E-1,-6.711161137E-2
2.380645329E0,-2.368880063E-1,-4.735096991E-1,-6.498108059E-2
2.382655485E0,-2.464753687E-1,-4.713791609E-1,-5.965476483E-2
2.384665641E0,-2.560627460E-1,-4.713791609E-1,-5.326318368E-2
2.386675798E0,-2.656501234E-1,-4.692486227E-1,-4.687159881E-2
2.388685954E0,-2.699111700E-1,-4.713791609E-1,-3.728422895E-2
2.390696110E0,-2.763027549E-1,-4.745749533E-1,-2.769685537E-2
2.392706266E0,-2.837595940E-1,-4.830970466E-1,-2.024000883E-2
2.394716423E0,-2.890859246E-1,-4.884233773E-1,-9.587372653E-3
2.396726579E0,-2.922817171E-1,-4.958802164E-1,-2.130527282E-3
2.398736735E0,-2.965427637E-1,-5.001412630E-1,4.261054564E-3
2.400746891E0,-2.997385561E-1,-5.054675937E-1,9.587372653E-3
2.402757048E0,-3.018690944E-1,-5.097286701E-1,1.704421826E-2
2.404767204E0,-3.018690944E-1,-5.150549412E-1,2.130527236E-2
2.406777360E0,-3.018690944E-1,-5.203812718E-1,2.237053588E-2
2.408787516E0,-3.008038104E-1,-5.267728567E-1,2.450106293E-2
2.410797673E0,-3.018690944E-1,-5.289034247E-1,2.556632832E-2
2.412807829E0,-3.039996028E-1,-5.299686790E-1,2.663159184E-2
2.414817985E0,-3.039996028E-1,-5.342296958E-1,2.663159184E-2
2.416828141E0,-3.018690944E-1,-5.331644416E-1,2.663159184E-2
2.418838298E0,-3.029343486E-1,-5.363602638E-1,2.450106293E-2
2.420848454E0,-3.050648868E-1,-5.395560265E-1,2.130527236E-2
2.422858610E0,-3.061301410E-1,-5.406212807E-1,1.597895473E-2
2.424868766E0,-3.061301410E-1,-5.395560265E-1,1.065263618E-2
2.426878923E0,-3.093259335E-1,-5.352949500E-1,5.326318089E-3
2.428889079E0,-3.114564717E-1,-5.289034247E-1,-0.000000000E0
2.430899235E0,-3.146522343E-1,-5.203812718E-1,-7.456845604E-3
2.432909391E0,-3.189133108E-1,-5.097286701E-1,-1.384842768E-2
2.434919548E0,-3.221091032E-1,-4.969455004E-1,-2.130527236E-2
2.436929704E0,-3.274354041E-1,-4.830970466E-1,-2.876211889E-2
2.438939860E0,-3.306311965E-1,-4.660528302E-1,-3.408843651E-2
2.440950016E0,-3.391533196E-1,-4.543349445E-1,-3.621896356E-2
2.442960173E0,-3.412838280E-1,-4.372907281E-1,-4.154528305E-2
2.444967152E0,-3.444796205E-1,-4.191812575E-1,-4.793686420E-2
2.446974131E0,-3.487406969E-1,-4.021370113E-1,-5.752423778E-2
2.448981527E0,-3.519364893E-1,-3.861580789E-1,-7.030740380E-2
2.450989443E0,-3.498059511E-1,-3.755054474E-1,-7.882951200E-2
2.452997933E0,-3.508712053E-1,-3.669833243E-1,-8.628635854E-2
2.455007048E0,-3.498059511E-1,-3.595264852E-1,-9.054741263E-2
2.457016787E0,-3.466101587E-1,-3.510043621E-1,-9.480846673E-2
2.459027152E0,-3.434143662E-1,-3.435475230E-1,-9.267793596E-2
2.461038089E0,-3.370227814E-1,-3.392864764E-1,-9.161267430E-2
2.463049548E0,-3.327617347E-1,-3.371559381E-1,-8.841688186E-2
2.465061475E0,-3.306311965E-1,-3.328948915E-1,-8.309056610E-2
2.467073766E0,-3.242396116E-1,-3.339601457E-1,-7.669898123E-2
2.469086318E0,-3.231743574E-1,-3.371559381E-1,-6.924213469E-2
2.471099027E0,-3.210438192E-1,-3.392864764E-1,-6.178529188E-2
2.473111787E0,-3.199785650E-1,-3.424822688E-1,-5.752423778E-2
2.475124235E0,-3.199785650E-1,-3.456780612E-1,-4.900212586E-2
2.477134391E0,-3.178480268E-1,-3.499391079E-1,-4.261054471E-2
2.479144548E0,-3.199785650E-1,-3.520696461E-1,-3.941475600E-2
2.481154704E0,-3.167827725E-1,-3.573959470E-1,-3.408843651E-2
2.483164860E0,-3.146522343E-1,-3.616569936E-1,-3.195790946E-2
2.485175016E0,-3.157175183E-1,-3.648527861E-1,-2.982738242E-2
2.487185173E0,-3.146522343E-1,-3.648527861E-1,-3.089264594E-2
2.489195329E0,-3.135869801E-1,-3.680485785E-1,-3.089264594E-2
2.491205485E0,-3.114564717E-1,-3.755054474E-1,-2.982738242E-2
2.493215641E0,-3.103911877E-1,-3.829622865E-1,-2.982738242E-2
2.495225798E0,-3.082606792E-1,-3.904191256E-1,-2.982738242E-2
2.497235954E0,-3.061301410E-1,-3.914843798E-1,-3.302317113E-2
2.499246110E0,-3.029343486E-1,-3.946801722E-1,-3.408843651E-2
2.501256266E0,-2.986733019E-1,-3.936149180E-1,-3.728422895E-2
2.503266423E0,-2.922817171E-1,-3.893538713E-1,-4.687159881E-2
2.505276579E0,-2.848248780E-1,-3.936149180E-1,-5.219791830E-2
2.507286735E0,-2.763027549E-1,-4.000065029E-1,-5.539371073E-2
2.509296891E0,-2.677806616E-1,-4.042675495E-1,-5.858949944E-2
2.511307048E0,-2.581932843E-1,-4.149201810E-1,-5.965476483E-2
2.513317204E0,-2.475406379E-1,-4.308991432E-1,-6.072002649E-2
2.515327360E0,-2.400837988E-1,-4.490086138E-1,-5.965476483E-2
2.517337516E0,-2.315616906E-1,-4.713791609E-1,-5.965476483E-2
2.519347673E0,-2.230395675E-1,-4.937497079E-1,-5.858949944E-2
2.521357829E0,-2.166479975E-1,-5.182507634E-1,-5.752423778E-2
2.523367985E0,-2.102564126E-1,-5.448823571E-1,-5.752423778E-2
2.525378141E0,-2.027995586E-1,-5.779055357E-1,-5.645897239E-2
2.527388298E0,-1.985385120E-1,-6.056023836E-1,-5.432844535E-2
2.529398454E0,-1.985385120E-1,-6.311687231E-1,-5.432844535E-2
2.531408610E0,-1.996037811E-1,-6.556697488E-1,-5.645897239E-2
2.533418766E0,-1.996037811E-1,-6.780403256E-1,-5.858949944E-2
2.535428923E0,-2.059953511E-1,-6.982803345E-1,-5.858949944E-2
2.537439079E0,-2.123869359E-1,-7.195855975E-1,-5.858949944E-2
2.539449235E0,-2.177132517E-1,-7.376950979E-1,-6.178529188E-2
2.541459391E0,-2.283658981E-1,-7.547392845E-1,-6.178529188E-2
2.543469548E0,-2.368880063E-1,-7.685877085E-1,-6.178529188E-2
2.545479704E0,-2.454101145E-1,-7.760445476E-1,-6.178529188E-2
2.547489860E0,-2.549974918E-1,-7.888277173E-1,-6.072002649E-2
2.549500016E0,-2.699111700E-1,-8.026761413E-1,-5.858949944E-2
2.551510173E0,-2.826943398E-1,-8.090677261E-1,-5.752423778E-2
2.553520329E0,-2.954775095E-1,-8.101329803E-1,-5.965476483E-2
2.555530485E0,-3.082606792E-1,-8.143940568E-1,-5.965476483E-2
2.557540641E0,-3.221091032E-1,-8.154593110E-1,-6.178529188E-2
2.559550798E0,-3.338269889E-1,-8.154593110E-1,-6.178529188E-2
2.561560954E0,-3.455449045E-1,-8.133288026E-1,-6.391581893E-2
2.563571110E0,-3.593933284E-1,-8.069372177E-1,-6.604634225E-2
2.565581266E0,-3.679154217E-1,-7.984151244E-1,-6.924213469E-2
2.567591423E0,-3.806985915E-1,-7.845667005E-1,-7.137266546E-2
2.569601579E0,-3.881554306E-1,-7.728487849E-1,-7.563371956E-2
2.571611735E0,-3.977428079E-1,-7.590003610E-1,-7.882951200E-2
2.573621891E0,-4.094607234E-1,-7.430213690E-1,-8.415582776E-2
2.575632048E0,-4.201133549E-1,-7.291729450E-1,-8.735162020E-2
2.577642204E0,-4.339617789E-1,-7.206508517E-1,-8.628635854E-2
2.579652360E0,-4.403533638E-1,-7.004108429E-1,-7.243792713E-2
2.581662516E0,-4.435491562E-1,-6.759097576E-1,-7.669898123E-2
2.583672673E0,-4.499407411E-1,-6.546044946E-1,-8.948214352E-2
2.585682829E0,-4.531365335E-1,-6.386255622E-1,-8.309056610E-2
2.587692985E0,-4.520712495E-1,-6.183855534E-1,-7.030740380E-2
2.589703141E0,-4.456796646E-1,-6.013413072E-1,-6.391581893E-2
2.591713298E0,-4.435491562E-1,-5.800360441E-1,-5.858949944E-2
2.593723454E0,-4.371575713E-1,-5.597960353E-1,-6.072002649E-2
2.595733662E0,-4.286354482E-1,-5.352949500E-1,-6.072002649E-2
2.597743870E0,-4.179828167E-1,-5.161202550E-1,-6.711161137E-2
2.599754079E0,-4.073301852E-1,-4.937497079E-1,-7.563371956E-2
2.601764287E0,-3.956122994E-1,-4.756402075E-1,-8.628635854E-2
2.603774495E0,-3.806985915E-1,-4.543349445E-1,-9.800425172E-2
2.605784704E0,-3.657849133E-1,-4.362254739E-1,-1.107874215E-1
2.607794912E0,-3.519364893E-1,-4.181159735E-1,-1.214400530E-1
2.609805120E0,-3.359575272E-1,-4.000065029E-1,-1.352884769E-1
2.611815329E0,-3.167827725E-1,-3.818970025E-1,-1.480716467E-1
2.613825537E0,-2.997385561E-1,-3.648527861E-1,-1.608548164E-1
2.615835745E0,-2.805638015E-1,-3.510043621E-1,-1.736379713E-1
2.617845954E0,-2.624543309E-1,-3.371559381E-1,-1.853558719E-1
2.619856162E0,-2.422143221E-1,-3.233075142E-1,-1.981390417E-1
2.621866370E0,-2.251701057E-1,-3.083938360E-1,-2.066611499E-1
2.623876579E0,-2.081258893E-1,-2.924148738E-1,-2.162485123E-1
2.625886787E0,-1.910816729E-1,-2.828274965E-1,-2.237053663E-1
2.627896995E0,-1.708416492E-1,-2.721748650E-1,-2.300969511E-1
2.629907204E0,-1.559279710E-1,-2.583264410E-1,-2.375537902E-1
2.631917412E0,-1.399490088E-1,-2.476737946E-1,-2.418148518E-1
2.633927620E0,-1.207742617E-1,-2.380864173E-1,-2.471411675E-1
2.635937829E0,-1.069258377E-1,-2.295643091E-1,-2.514022291E-1
2.637948037E0,-9.094688296E-2,-2.210422009E-1,-2.556632757E-1
2.639958245E0,-7.177213579E-2,-2.167811543E-1,-2.567285299E-1
2.641968454E0,-5.685844645E-2,-2.050632536E-1,-2.631201148E-1
2.643978662E0,-4.087949172E-2,-1.997369379E-1,-2.663159072E-1
2.645988870E0,-2.383527346E-2,-1.933453530E-1,-2.695116997E-1
2.647999079E0,-9.986846708E-3,-1.880190372E-1,-2.759032845E-1
2.650009287E0,9.187898599E-3,-1.805621833E-1,-2.812296152E-1
2.652019495E0,2.197106183E-2,-1.794969290E-1,-2.833601236E-1
2.654029704E0,3.581948951E-2,-1.763011366E-1,-2.886864543E-1
2.656039912E0,5.179844424E-2,-1.731053442E-1,-2.950780392E-1
2.658050120E0,6.458161026E-2,-1.688442826E-1,-2.972085476E-1
2.660060329E0,7.949529588E-2,-1.645832360E-1,-3.025348783E-1
2.662070537E0,9.334372729E-2,-1.624527127E-1,-3.067959249E-1
2.664080745E0,1.071921512E-1,-1.592569202E-1,-3.078611791E-1
2.666090954E0,1.178447902E-1,-1.539305896E-1,-3.089264631E-1
2.668101162E0,1.316932142E-1,-1.464737505E-1,-3.099917173E-1
2.670111370E0,1.444763839E-1,-1.411474347E-1,-3.089264631E-1
2.672121579E0,1.540637612E-1,-1.379516423E-1,-3.099917173E-1
2.674131787E0,1.657816470E-1,-1.347558498E-1,-3.067959249E-1
2.676141995E0,1.774995476E-1,-1.326253265E-1,-3.025348783E-1
2.678152204E0,1.881521940E-1,-1.304948032E-1,-2.982738316E-1
2.680162360E0,1.988048255E-1,-1.294295341E-1,-2.929475009E-1
2.682172516E0,2.073269337E-1,-1.304948032E-1,-2.876211703E-1
2.684182673E0,2.179795653E-1,-1.347558498E-1,-2.780338228E-1
2.686192829E0,2.275669426E-1,-1.422126889E-1,-2.673811615E-1
2.688202985E0,2.371543199E-1,-1.464737505E-1,-2.567285299E-1
2.690213141E0,2.467416972E-1,-1.411474347E-1,-2.482064217E-1
2.692223298E0,2.541985512E-1,-1.368863732E-1,-2.386190593E-1
2.694233454E0,2.616553903E-1,-1.304948032E-1,-2.290316820E-1
2.696243610E0,2.691122293E-1,-1.251684725E-1,-2.194443047E-1
2.698253766E0,2.744385600E-1,-1.198421568E-1,-2.098569423E-1
2.700263923E0,2.808301151E-1,-1.134505793E-1,-2.013348341E-1
2.702274079E0,2.861564457E-1,-1.070589945E-1,-1.928127259E-1
2.704284235E0,2.914827764E-1,-1.027979404E-1,-1.885516644E-1
2.706294391E0,2.946785688E-1,-9.640636295E-2,-1.821600795E-1
2.708304548E0,2.989396155E-1,-9.214530140E-2,-1.778990328E-1
2.710314704E0,3.010701239E-1,-9.001477808E-2,-1.757684946E-1
2.712324860E0,3.042659163E-1,-8.681898564E-2,-1.747032404E-1
2.714335016E0,3.085269928E-1,-8.894951642E-2,-1.747032404E-1
2.716345173E0,3.042659163E-1,-9.960214794E-2,-1.810948253E-1
2.718355329E0,2.925480306E-1,-1.123853177E-1,-1.917474568E-1
2.720365485E0,2.723080218E-1,-1.326253265E-1,-2.087916732E-1
2.722375641E0,2.520680130E-1,-1.486042738E-1,-2.237053663E-1
2.724385798E0,2.307627350E-1,-1.592569202E-1,-2.460758984E-1
2.726395954E0,2.115879953E-1,-1.656484902E-1,-2.631201148E-1
2.728406110E0,1.966743022E-1,-1.699095517E-1,-2.801643312E-1
2.730416266E0,1.892174482E-1,-1.720400751E-1,-2.950780392E-1
2.732426423E0,1.806953400E-1,-1.741705984E-1,-3.110569715E-1
2.734436579E0,1.721732318E-1,-1.816274524E-1,-3.249054253E-1
2.736446735E0,1.711079776E-1,-1.837579757E-1,-3.419496417E-1
2.738456891E0,1.593900770E-1,-1.922800839E-1,-3.579285741E-1
2.740467048E0,1.508679688E-1,-1.997369379E-1,-3.739075363E-1
2.742477204E0,1.423458606E-1,-2.050632536E-1,-3.888212144E-1
2.744487360E0,1.338237375E-1,-2.114548385E-1,-4.037349224E-1
2.746497516E0,1.242363751E-1,-2.157158852E-1,-4.165180922E-1
2.748507673E0,1.135837361E-1,-2.199769467E-1,-4.271707237E-1
2.750517829E0,1.029310971E-1,-2.199769467E-1,-4.367581010E-1
2.752527985E0,9.014793485E-2,-2.178464085E-1,-4.420844018E-1
2.754538141E0,7.843003422E-2,-2.210422009E-1,-4.474107325E-1
2.756548298E0,5.925529078E-2,-2.455432713E-1,-4.559328258E-1
2.758558454E0,3.155843541E-2,-2.849580348E-1,-4.687159956E-1
2.760568610E0,6.657897611E-4,-3.179811835E-1,-4.857602119E-1
2.762578766E0,-2.596580051E-2,-3.392864764E-1,-4.996086359E-1
2.764588923E0,-5.046686530E-2,-3.478085697E-1,-5.113265514E-1
2.766599079E0,-7.283740491E-2,-3.531349003E-1,-5.123918056E-1
2.768609235E0,-9.307741374E-2,-3.616569936E-1,-5.102612972E-1
2.770619391E0,-1.122521535E-1,-3.701791167E-1,-5.049349666E-1
2.772629548E0,-1.314269006E-1,-3.733749092E-1,-4.921517968E-1
2.774639704E0,-1.420795321E-1,-3.733749092E-1,-4.729770422E-1
2.776649860E0,-1.506016403E-1,-3.691138625E-1,-4.495412707E-1
2.778660016E0,-1.537974328E-1,-3.595264852E-1,-4.271707237E-1
2.780670173E0,-1.548627019E-1,-3.488738537E-1,-4.016043842E-1
2.782680329E0,-1.569932252E-1,-3.403517306E-1,-3.749727905E-1
2.784690485E0,-1.559279710E-1,-3.296990991E-1,-3.504717350E-1
2.786700641E0,-1.516669095E-1,-3.190464675E-1,-3.302317262E-1
2.788710798E0,-1.420795321E-1,-3.073285520E-1,-3.078611791E-1
2.790720954E0,-1.324921697E-1,-2.977411747E-1,-2.876211703E-1
2.792731110E0,-1.165132076E-1,-2.892190814E-1,-2.652506530E-1
2.794741266E0,-9.733846784E-2,-2.881538272E-1,-2.460758984E-1
2.796751423E0,-7.496792823E-2,-2.902843356E-1,-2.215748429E-1
2.798761579E0,-4.833633825E-2,-2.945453823E-1,-1.992042959E-1
2.800771787E0,-2.063948289E-2,-3.051980436E-1,-1.757684946E-1
2.802781995E0,9.187898599E-3,-3.233075142E-1,-1.502021700E-1
2.804792204E0,4.114580899E-2,-3.403517306E-1,-1.246358454E-1
2.806802412E0,7.310371846E-2,-3.573959470E-1,-1.001347825E-1
2.808812620E0,1.093226820E-1,-3.723096550E-1,-7.563371956E-2
2.810822829E0,1.466069072E-1,-3.893538713E-1,-5.113265663E-2
2.812833037E0,1.838911325E-1,-4.117243886E-1,-2.982738242E-2
2.814843245E0,2.169143111E-1,-4.340949357E-1,-7.456845604E-3
2.816853454E0,2.478069514E-1,-4.596612751E-1,8.522109129E-3
2.818863662E0,2.755038142E-1,-4.873581231E-1,2.450106293E-2
2.820873870E0,3.021354079E-1,-5.139896870E-1,3.515370190E-2
2.822884079E0,3.255712092E-1,-5.406212807E-1,4.474107176E-2
2.824894287E0,3.458112180E-1,-5.640571117E-1,5.113265663E-2
2.826904495E0,3.639206886E-1,-5.853623748E-1,5.539371073E-2
2.828914704E0,3.798996508E-1,-6.056023836E-1,5.645897239E-2
2.830924912E0,3.905522823E-1,-6.237118840E-1,5.858949944E-2
2.832935120E0,4.012049139E-1,-6.386255622E-1,5.752423778E-2
2.834945329E0,4.054659605E-1,-6.503434777E-1,5.432844535E-2
2.836955537E0,4.065312445E-1,-6.609960794E-1,5.006739125E-2
2.838965745E0,4.075964987E-1,-6.695181727E-1,4.474107176E-2
2.840975954E0,4.065312445E-1,-6.737792492E-1,3.515370190E-2
2.842986162E0,4.022701681E-1,-6.748445034E-1,2.769685537E-2
2.844996370E0,4.001396596E-1,-6.801708341E-1,1.384842768E-2
2.847006579E0,3.937480748E-1,-6.833665967E-1,-0.000000000E0
2.849016787E0,3.905522823E-1,-6.865624189E-1,-1.597895473E-2
2.851026995E0,3.841606975E-1,-6.854971647E-1,-3.089264594E-2
2.853037204E0,3.756386042E-1,-6.844319105E-1,-4.900212586E-2
2.855047412E0,3.671164811E-1,-6.801708341E-1,-7.030740380E-2
2.857057620E0,3.564638495E-1,-6.737792492E-1,-9.054741263E-2
2.859067829E0,3.468764722E-1,-6.652571559E-1,-1.118526831E-1
2.861078037E0,3.362238407E-1,-6.546044946E-1,-1.331579536E-1
2.863088245E0,3.277017176E-1,-6.471476555E-1,-1.523326933E-1
2.865098454E0,3.127880394E-1,-6.386255622E-1,-1.693769246E-1
2.867108662E0,3.053312004E-1,-6.290381551E-1,-1.853558719E-1
2.869118870E0,2.978743315E-1,-6.173202991E-1,-1.992042959E-1
2.871129079E0,2.904174924E-1,-6.077328920E-1,-2.119874656E-1
2.873139287E0,2.818953991E-1,-5.960150361E-1,-2.247706354E-1
2.875149495E0,2.755038142E-1,-5.853623748E-1,-2.354232669E-1
2.877159704E0,2.691122293E-1,-5.725792050E-1,-2.450106442E-1
2.879169912E0,2.691122293E-1,-5.576655269E-1,-2.535327375E-1
2.881180120E0,2.659164369E-1,-5.480781198E-1,-2.588590682E-1
2.883190277E0,2.659164369E-1,-5.352949500E-1,-2.641853690E-1
2.885200433E0,2.637858987E-1,-5.289034247E-1,-2.673811615E-1
2.887210589E0,2.659164369E-1,-5.257076025E-1,-2.716422379E-1
2.889220745E0,2.691122293E-1,-5.278381109E-1,-2.716422379E-1
2.891230902E0,2.733732760E-1,-5.267728567E-1,-2.705769539E-1
2.893241058E0,2.776343226E-1,-5.235770941E-1,-2.652506530E-1
2.895251214E0,2.829606533E-1,-5.214465261E-1,-2.588590682E-1
2.897261370E0,2.893522382E-1,-5.214465261E-1,-2.535327375E-1
2.899271527E0,2.968090773E-1,-5.235770941E-1,-2.460758984E-1
2.901281683E0,3.032006621E-1,-5.267728567E-1,-2.396843135E-1
2.903291839E0,3.106575012E-1,-5.278381109E-1,-2.322274745E-1
2.905301995E0,3.191796243E-1,-5.342296958E-1,-2.205095738E-1
2.907312152E0,3.287670016E-1,-5.395560265E-1,-2.087916732E-1
2.909322308E0,3.394196332E-1,-5.416865349E-1,-1.970737725E-1
2.911332464E0,3.458112180E-1,-5.384907722E-1,-1.896169335E-1
2.913342620E0,3.564638495E-1,-5.352949500E-1,-1.821600795E-1
2.915352777E0,3.649859428E-1,-5.246423483E-1,-1.768337637E-1
2.917362933E0,3.724428117E-1,-5.129244328E-1,-1.757684946E-1
2.919373089E0,3.798996508E-1,-5.001412630E-1,-1.778990328E-1
2.921383245E0,3.884217441E-1,-4.841623306E-1,-1.778990328E-1
2.923393402E0,3.937480748E-1,-4.660528302E-1,-1.800295562E-1
2.925403558E0,4.001396596E-1,-4.500738978E-1,-1.821600795E-1
2.927413714E0,4.054659605E-1,-4.308991432E-1,-1.832253486E-1
2.929423870E0,4.139880836E-1,-4.127896726E-1,-1.842906028E-1
2.931434027E0,4.203796685E-1,-3.904191256E-1,-1.832253486E-1
2.933444183E0,4.278365076E-1,-3.712443709E-1,-1.853558719E-1
2.935454339E0,4.331628382E-1,-3.531349003E-1,-1.832253486E-1
2.937464495E0,4.395544231E-1,-3.371559381E-1,-1.757684946E-1
2.939474652E0,4.448807240E-1,-3.222422600E-1,-1.704421788E-1
2.941484808E0,4.502070546E-1,-3.073285520E-1,-1.640505940E-1
2.943494964E0,4.555333555E-1,-2.849580348E-1,-1.544632316E-1
2.945501631E0,4.587291479E-1,-2.636527419E-1,-1.459411234E-1
2.947508298E0,4.651207328E-1,-2.444780022E-1,-1.395495385E-1
2.949515381E0,4.672512710E-1,-2.210422009E-1,-1.299621612E-1
2.951522985E0,4.704470634E-1,-1.954758763E-1,-1.246358454E-1
2.953531214E0,4.704470634E-1,-1.677790284E-1,-1.193095297E-1
2.955540120E0,4.693817794E-1,-1.411474347E-1,-1.139832065E-1
2.957549704E0,4.683165252E-1,-1.155811027E-1,-1.097221524E-1
2.959559964E0,4.640554786E-1,-8.681898564E-2,-1.075916290E-1
2.961570902E0,4.608596861E-1,-5.912213027E-2,-1.054610983E-1
2.963582412E0,4.608596861E-1,-3.249054030E-2,-1.033305749E-1
2.965594443E0,4.565986395E-1,-4.793686327E-3,-9.693899006E-2
2.967606891E0,4.523375630E-1,2.077264152E-2,-9.374319762E-2
2.969619652E0,4.491417706E-1,4.846949503E-2,-9.587372839E-2
2.971632620E0,4.406196773E-1,7.084003091E-2,-9.693899006E-2
2.973645693E0,4.278365076E-1,9.321057051E-2,-1.022653133E-1
2.975658454E0,4.129228294E-1,1.081242561E-1,-1.065263674E-1
2.977668610E0,3.980091214E-1,1.241032109E-1,-1.150484756E-1
2.979678766E0,3.788343966E-1,1.347558498E-1,-1.246358454E-1
2.981688923E0,3.585943878E-1,1.432779580E-1,-1.352884769E-1
2.983699079E0,3.404848874E-1,1.464737505E-1,-1.438105851E-1
2.985709235E0,3.223754168E-1,1.528653353E-1,-1.459411234E-1
2.987719391E0,3.085269928E-1,1.571263820E-1,-1.470063776E-1
2.989729548E0,2.989396155E-1,1.560611278E-1,-1.384842694E-1
2.991739704E0,2.872217000E-1,1.518000662E-1,-1.288969070E-1
2.993749860E0,2.808301151E-1,1.496695429E-1,-1.129179448E-1
2.995760016E0,2.776343226E-1,1.422126889E-1,-9.054741263E-2
2.997770173E0,2.744385600E-1,1.347558498E-1,-6.285055727E-2
2.999780329E0,2.723080218E-1,1.262337416E-1,-3.728422895E-2
3.001790485E0,2.723080218E-1,1.123853177E-1,-9.587372653E-3
3.003800641E0,2.680469751E-1,1.017326787E-1,1.491369121E-2
3.005810798E0,2.648511827E-1,8.468846232E-2,4.048001766E-2
3.007820954E0,2.616553903E-1,6.551371515E-2,6.072002649E-2
3.009831110E0,2.552638054E-1,4.314317927E-2,7.776424289E-2
3.011841266E0,2.488722205E-1,1.970737800E-2,9.054741263E-2
3.013851423E0,2.424806356E-1,-7.989477366E-3,1.012000442E-1
3.015861579E0,2.339585274E-1,-3.249054030E-2,1.054610983E-1
3.017871735E0,2.243711501E-1,-6.231792271E-2,1.054610983E-1
3.019881891E0,2.169143111E-1,-8.788424730E-2,1.054610983E-1
3.021892048E0,2.094574571E-1,-1.123853177E-1,1.001347825E-1
3.023902204E0,2.009353489E-1,-1.379516423E-1,9.906952083E-2
3.025912360E0,1.913479865E-1,-1.624527127E-1,9.374319762E-2
3.027922516E0,1.849564016E-1,-1.922800839E-1,8.948214352E-2
3.029932673E0,1.753690243E-1,-2.242379934E-1,8.309056610E-2
3.031942829E0,1.636511236E-1,-2.593916953E-1,8.096003532E-2
3.033952985E0,1.498026997E-1,-2.913496196E-1,7.776424289E-2
3.035963141E0,1.380847991E-1,-3.147853911E-1,7.563371956E-2
3.037973298E0,1.231711060E-1,-3.371559381E-1,7.350318879E-2
3.039983454E0,1.103879437E-1,-3.520696461E-1,7.563371956E-2
3.041993610E0,9.867004305E-2,-3.680485785E-1,7.882951200E-2
3.044003766E0,8.588688076E-2,-3.797664940E-1,8.096003532E-2
3.046013923E0,7.310371846E-2,-3.882885873E-1,8.309056610E-2
3.048024079E0,6.245107949E-2,-3.957454562E-1,8.522108942E-2
3.050034235E0,4.753739014E-2,-3.989412189E-1,8.735162020E-2
3.052044391E0,3.688475490E-2,-4.010717571E-1,9.054741263E-2
3.054054548E0,2.303632535E-2,-3.968107104E-1,9.480846673E-2
3.056064704E0,1.131842658E-2,-3.978759646E-1,9.906952083E-2
3.058074860E0,-3.994738800E-4,-3.978759646E-1,1.001347825E-1
3.060085016E0,-8.921583183E-3,-4.000065029E-1,1.065263674E-1
3.062095173E0,-1.744369231E-2,-4.053328037E-1,1.065263674E-1
3.064105329E0,-2.490053698E-2,-4.095938802E-1,1.097221524E-1
3.066115485E0,-3.129211813E-2,-4.106591344E-1,1.065263674E-1
3.068125641E0,-3.874896467E-2,-4.159854650E-1,1.033305749E-1
3.070135798E0,-4.407528415E-2,-4.159854650E-1,1.012000442E-1
3.072145954E0,-4.514054582E-2,-4.127896726E-1,9.906952083E-2
3.074156110E0,-4.833633825E-2,-4.106591344E-1,1.043958366E-1
3.076166266E0,-4.940159991E-2,-4.085285962E-1,1.139832065E-1
3.078176423E0,-5.259739235E-2,-4.106591344E-1,1.257011145E-1
3.080186579E0,-5.153212696E-2,-4.085285962E-1,1.374190152E-1
3.082196735E0,-4.727107286E-2,-4.010717571E-1,1.416800618E-1
3.084206891E0,-4.514054582E-2,-3.957454562E-1,1.470063776E-1
3.086217048E0,-4.087949172E-2,-3.872233331E-1,1.502021700E-1
3.088227204E0,-3.235738352E-2,-3.744401634E-1,1.512674391E-1
3.090237360E0,-2.596580051E-2,-3.584612012E-1,1.533979625E-1
3.092247516E0,-1.744369231E-2,-3.403517306E-1,1.533979625E-1
3.094257673E0,-1.105211023E-2,-3.254380524E-1,1.533979625E-1
3.096267829E0,6.657897611E-4,-3.062632978E-1,1.544632316E-1
3.098278037E0,1.344895363E-2,-2.860232890E-1,1.544632316E-1
3.100288245E0,2.516685426E-2,-2.647180259E-1,1.544632316E-1
3.102298454E0,4.221107066E-2,-2.476737946E-1,1.533979625E-1
3.104308662E0,5.819002539E-2,-2.327601016E-1,1.523326933E-1
3.106318870E0,7.310371846E-2,-2.178464085E-1,1.544632316E-1
3.108329079E0,8.801741153E-2,-2.061285079E-1,1.576590240E-1
3.110339287E0,1.029310971E-1,-1.986716688E-1,1.587242782E-1
3.112349495E0,1.189100519E-1,-1.912148297E-1,1.619200706E-1
3.114359704E0,1.338237375E-1,-1.869537681E-1,1.629853398E-1
3.116369912E0,1.434111148E-1,-1.816274524E-1,1.619200706E-1
3.118380120E0,1.540637612E-1,-1.805621833E-1,1.587242782E-1
3.120390329E0,1.647163928E-1,-1.805621833E-1,1.587242782E-1
3.122400537E0,1.743037701E-1,-1.848232448E-1,1.533979625E-1
3.124410745E0,1.817606091E-1,-1.933453530E-1,1.470063776E-1
3.126420954E0,1.860216707E-1,-1.965411454E-1,1.384842694E-1
3.128431162E0,1.870869249E-1,-1.773663908E-1,1.225053221E-1
3.130441370E0,1.806953400E-1,-1.336905807E-1,9.906952083E-2
3.132451579E0,1.743037701E-1,-1.113200486E-1,8.309056610E-2
3.134461787E0,1.700427085E-1,-1.059937328E-1,6.924213469E-2
3.136471995E0,1.636511236E-1,-1.177116334E-1,6.285055727E-2
3.138482204E0,1.572595388E-1,-1.464737505E-1,5.858949944E-2
3.140492412E0,1.529984921E-1,-1.805621833E-1,5.752423778E-2
3.142502620E0,1.455416381E-1,-2.189116776E-1,5.539371073E-2
3.144512829E0,1.338237375E-1,-2.561959028E-1,5.219791830E-2
3.146523037E0,1.221058443E-1,-2.924148738E-1,5.219791830E-2
3.148533245E0,1.114532053E-1,-3.211769760E-1,5.006739125E-2
3.150543454E0,1.008005738E-1,-3.414169848E-1,4.793686420E-2
3.152553662E0,8.908267319E-2,-3.573959470E-1,4.367581010E-2
3.154563870E0,7.629951090E-2,-3.648527861E-1,3.941475600E-2
3.156574079E0,6.671213359E-2,-3.627222776E-1,3.302317113E-2
3.158584287E0,5.712476373E-2,-3.595264852E-1,2.343579940E-2
3.160594495E0,4.860265180E-2,-3.531349003E-1,1.384842768E-2
3.162604704E0,4.221107066E-2,-3.510043621E-1,2.130527282E-3
3.164614912E0,3.368896246E-2,-3.488738537E-1,-9.587372653E-3
3.166625120E0,2.410159074E-2,-3.467433155E-1,-2.556632832E-2
3.168635329E0,1.877527125E-2,-3.456780612E-1,-4.154528305E-2
3.170645537E0,1.238369010E-2,-3.488738537E-1,-5.858949944E-2
3.172655745E0,3.861580743E-3,-3.499391079E-1,-7.456845790E-2
3.174665954E0,-3.994738800E-4,-3.520696461E-1,-9.161267430E-2
3.176676162E0,-5.725792143E-3,-3.531349003E-1,-1.075916290E-1
3.178686370E0,-1.105211023E-2,-3.531349003E-1,-1.257011145E-1
3.180696527E0,-1.637842879E-2,-3.456780612E-1,-1.448758543E-1
3.182706683E0,-2.063948289E-2,-3.328948915E-1,-1.661811322E-1
3.184716839E0,-2.170474641E-2,-3.190464675E-1,-1.874863952E-1
3.186726995E0,-2.490053698E-2,-2.998717129E-1,-2.151832581E-1
3.188737152E0,-2.596580051E-2,-2.775011659E-1,-2.396843135E-1
3.190747308E0,-2.809632942E-2,-2.604569495E-1,-2.620548606E-1
3.192757464E0,-2.809632942E-2,-2.402169555E-1,-2.801643312E-1
3.194763870E0,-2.596580051E-2,-2.221074700E-1,-2.993390858E-1
3.196770277E0,-2.596580051E-2,-1.997369379E-1,-3.153180480E-1
3.198777100E0,-2.383527346E-2,-1.773663908E-1,-3.323622644E-1
3.200784495E0,-2.277000993E-2,-1.560611278E-1,-3.408843577E-1
3.202792516E0,-2.170474641E-2,-1.358211190E-1,-3.451454341E-1
3.204801214E0,-2.277000993E-2,-1.209074259E-1,-3.419496417E-1
3.206810641E0,-2.170474641E-2,-1.059937328E-1,-3.387538493E-1
3.208820798E0,-2.383527346E-2,-9.640636295E-2,-3.334275186E-1
3.210831683E0,-2.596580051E-2,-8.575372398E-2,-3.291664720E-1
3.212843193E0,-2.703106403E-2,-8.149266988E-2,-3.238401413E-1
3.214855277E0,-3.235738352E-2,-7.829687744E-2,-3.206443489E-1
3.216867829E0,-3.555317223E-2,-7.723161578E-2,-3.174485564E-1
3.218880745E0,-3.768370301E-2,-7.723161578E-2,-3.174485564E-1
3.220893870E0,-4.194475710E-2,-8.042740822E-2,-3.153180480E-1
3.222907100E0,-4.514054582E-2,-8.362319320E-2,-3.174485564E-1
3.224920329E0,-4.407528415E-2,-9.001477808E-2,-3.163833022E-1
3.226930589E0,-4.301001877E-2,-9.534109384E-2,-3.195790946E-1
3.228940745E0,-4.301001877E-2,-9.960214794E-2,-3.195790946E-1
3.230950902E0,-3.981423005E-2,-1.049284711E-1,-3.217096329E-1
3.232961058E0,-3.661843762E-2,-1.081242561E-1,-3.195790946E-1
3.234971214E0,-3.235738352E-2,-1.123853177E-1,-3.131875098E-1
3.236981370E0,-2.916159295E-2,-1.155811027E-1,-3.057306707E-1
3.238991527E0,-2.383527346E-2,-1.209074259E-1,-2.929475009E-1
3.241001683E0,-2.063948289E-2,-1.326253265E-1,-2.790990770E-1
3.243011839E0,-1.744369231E-2,-1.454084814E-1,-2.620548606E-1
3.245021995E0,-1.318263728E-2,-1.656484902E-1,-2.407495826E-1
3.247032152E0,-9.986846708E-3,-1.826927215E-1,-2.226400971E-1
3.249042308E0,-6.791055668E-3,-2.050632536E-1,-2.034653574E-1
3.251052464E0,-1.464737463E-3,-2.274337858E-1,-1.853558719E-1
3.253062620E0,7.057371549E-3,-2.498043180E-1,-1.651158631E-1
3.255072777E0,1.238369010E-2,-2.785664499E-1,-1.384842694E-1
3.257082933E0,1.877527125E-2,-3.094590902E-1,-1.054610983E-1
3.259093089E0,2.623211779E-2,-3.382211924E-1,-7.456845790E-2
3.261103245E0,3.368896246E-2,-3.637875319E-1,-4.687159881E-2
3.263113402E0,4.008054361E-2,-3.872233331E-1,-2.876211889E-2
3.265123558E0,4.966791719E-2,-4.063980877E-1,-1.704421826E-2
3.267133714E0,6.032055244E-2,-4.234423041E-1,-1.491369121E-2
3.269143870E0,6.777740270E-2,-4.383559823E-1,-2.130527236E-2
3.271154027E0,8.162582666E-2,-4.479433596E-1,-3.195790946E-2
3.273164183E0,9.227846563E-2,-4.532696903E-1,-4.687159881E-2
3.275174339E0,1.029310971E-1,-4.617917836E-1,-5.858949944E-2
3.277184495E0,1.114532053E-1,-4.607265294E-1,-6.924213469E-2
3.279194652E0,1.189100519E-1,-4.617917836E-1,-7.776424289E-2
3.281204808E0,1.253016293E-1,-4.617917836E-1,-8.628635854E-2
3.283214964E0,1.316932142E-1,-4.607265294E-1,-9.054741263E-2
3.285225120E0,1.295626909E-1,-4.617917836E-1,-9.906952083E-2
3.287235277E0,1.263668984E-1,-4.585959911E-1,-1.107874215E-1
3.289245433E0,1.210405827E-1,-4.543349445E-1,-1.214400530E-1
3.291255589E0,1.157142594E-1,-4.436823130E-1,-1.395495385E-1
3.293265745E0,1.103879437E-1,-4.340949357E-1,-1.544632316E-1
3.295275902E0,9.973530471E-2,-4.213117659E-1,-1.715074480E-1
3.297286058E0,9.121319652E-2,-4.074633420E-1,-1.864211410E-1
3.299296214E0,7.843003422E-2,-3.925496638E-1,-1.992042959E-1
3.301306370E0,6.458161026E-2,-3.723096550E-1,-2.109221965E-1
3.303316527E0,5.392897129E-2,-3.563306928E-1,-2.205095738E-1
3.305326683E0,3.901528195E-2,-3.382211924E-1,-2.300969511E-1
3.307336839E0,2.410159074E-2,-3.211769760E-1,-2.407495826E-1
3.309346995E0,9.187898599E-3,-3.041327596E-1,-2.524674833E-1
3.311357152E0,-7.856319658E-3,-2.892190814E-1,-2.652506530E-1
3.313367308E0,-2.490053698E-2,-2.732401192E-1,-2.769685388E-1
3.315377464E0,-3.981423005E-2,-2.583264410E-1,-2.897517085E-1
3.317387620E0,-5.472791940E-2,-2.444780022E-1,-3.025348783E-1
3.319397777E0,-7.283740491E-2,-2.263685167E-1,-3.131875098E-1
3.321407933E0,-8.562056720E-2,-2.125200927E-1,-3.227748871E-1
3.323418089E0,-1.015995219E-1,-1.944106072E-1,-3.355580568E-1
3.325428245E0,-1.133174226E-1,-1.773663908E-1,-3.419496417E-1
3.327438402E0,-1.271658540E-1,-1.613874435E-1,-3.515369892E-1
3.329448558E0,-1.378184855E-1,-1.454084814E-1,-3.579285741E-1
3.331458714E0,-1.506016403E-1,-1.347558498E-1,-3.621896505E-1
3.333468870E0,-1.591237634E-1,-1.187768951E-1,-3.685812056E-1
3.335479027E0,-1.708416492E-1,-1.059937328E-1,-3.707117438E-1
3.337489183E0,-1.751027107E-1,-9.534109384E-2,-3.749727905E-1
3.339499339E0,-1.804290265E-1,-8.468846232E-2,-3.749727905E-1
3.341509495E0,-1.868206114E-1,-7.829687744E-2,-3.749727905E-1
3.343519652E0,-1.889511347E-1,-7.190529257E-2,-3.739075363E-1
3.345529808E0,-1.921469271E-1,-6.657897681E-2,-3.696464896E-1
3.347539964E0,-1.953427196E-1,-6.338318437E-2,-3.643201590E-1
3.349550120E0,-1.921469271E-1,-6.444845349E-2,-3.557980657E-1
3.351560329E0,-1.900164038E-1,-6.444845349E-2,-3.462106884E-1
3.353570537E0,-1.878858805E-1,-6.870950758E-2,-3.323622644E-1
3.355580745E0,-1.814942956E-1,-7.297056168E-2,-3.217096329E-1
3.357590954E0,-1.740374416E-1,-8.149266988E-2,-3.089264631E-1
3.359601162E0,-1.687111259E-1,-9.108003974E-2,-2.940127552E-1
3.361611370E0,-1.601890177E-1,-1.027979404E-1,-2.790990770E-1
3.363621579E0,-1.484711170E-1,-1.145158410E-1,-2.673811615E-1
3.365631787E0,-1.367532164E-1,-1.251684725E-1,-2.535327375E-1
3.367641995E0,-1.282311082E-1,-1.347558498E-1,-2.428801060E-1
3.369652204E0,-1.154479459E-1,-1.432779580E-1,-2.290316820E-1
3.371662412E0,-1.037300453E-1,-1.518000662E-1,-2.183790505E-1
3.373672620E0,-9.307741374E-2,-1.581916511E-1,-2.077264041E-1
3.375682829E0,-8.242477477E-2,-1.624527127E-1,-1.970737725E-1
3.377693037E0,-7.283740491E-2,-1.656484902E-1,-1.906821877E-1
3.379703245E0,-6.218476593E-2,-1.677790284E-1,-1.821600795E-1
3.381713454E0,-5.366265774E-2,-1.677790284E-1,-1.757684946E-1
3.383723662E0,-4.301001877E-2,-1.667137593E-1,-1.693769246E-1
3.385733870E0,-3.768370301E-2,-1.677790284E-1,-1.661811322E-1
3.387744079E0,-3.022685647E-2,-1.656484902E-1,-1.608548164E-1
3.389754287E0,-2.383527346E-2,-1.635179669E-1,-1.608548164E-1
3.391764495E0,-1.850895584E-2,-1.603221744E-1,-1.587242782E-1
3.393774704E0,-1.424790081E-2,-1.571263820E-1,-1.576590240E-1
3.395784912E0,-8.921583183E-3,-1.539305896E-1,-1.597895473E-1
3.397795120E0,-5.725792143E-3,-1.475390196E-1,-1.597895473E-1
3.399805329E0,-3.595264861E-3,-1.432779580E-1,-1.629853398E-1
3.401815537E0,6.657897611E-4,-1.368863732E-1,-1.651158631E-1
3.403825745E0,7.057371549E-3,-1.326253265E-1,-1.672463864E-1
3.405835954E0,8.122635074E-3,-1.262337416E-1,-1.715074480E-1
3.407846162E0,1.131842658E-2,-1.187768951E-1,-1.768337637E-1
3.409856370E0,1.451421715E-2,-1.123853177E-1,-1.800295562E-1
3.411866579E0,1.771000773E-2,-1.027979404E-1,-1.864211410E-1
3.413876787E0,2.303632535E-2,-9.108003974E-2,-1.906821877E-1
3.415886995E0,2.623211779E-2,-8.149266988E-2,-1.970737725E-1
3.417897204E0,3.049317189E-2,-6.870950758E-2,-2.013348341E-1
3.419907412E0,3.795001656E-2,-5.486107618E-2,-2.045306265E-1
3.421917620E0,4.221107066E-2,-4.207791388E-2,-2.077264041E-1
3.423927829E0,5.073318258E-2,-3.036001325E-2,-2.098569423E-1
3.425938037E0,5.712476373E-2,-1.757685095E-2,-2.130527347E-1
3.427948245E0,6.458161026E-2,-5.858949851E-3,-2.141179889E-1
3.429958454E0,7.097318769E-2,4.793686327E-3,-2.151832581E-1
3.431968610E0,7.736477256E-2,1.544632297E-2,-2.141179889E-1
3.433978766E0,8.482161909E-2,2.503369562E-2,-2.162485123E-1
3.435988923E0,9.334372729E-2,3.462106735E-2,-2.173137814E-1
3.437999079E0,9.973530471E-2,4.420844093E-2,-2.205095738E-1
3.440009235E0,1.082574204E-1,5.379581451E-2,-2.226400971E-1
3.442019391E0,1.146489978E-1,5.805686861E-2,-2.237053663E-1
3.444029548E0,1.221058443E-1,6.551371515E-2,-2.269011587E-1
3.446039704E0,1.295626909E-1,7.190529257E-2,-2.269011587E-1
3.448049860E0,1.391500682E-1,7.829687744E-2,-2.279664129E-1
3.450060016E0,1.466069072E-1,8.362319320E-2,-2.269011587E-1
3.452070173E0,1.551290154E-1,8.468846232E-2,-2.226400971E-1
3.454080329E0,1.636511236E-1,8.362319320E-2,-2.215748429E-1
3.456090485E0,1.732385010E-1,8.575372398E-2,-2.194443047E-1
3.458100641E0,1.806953400E-1,8.468846232E-2,-2.141179889E-1
3.460110798E0,1.892174482E-1,8.894951642E-2,-2.098569423E-1
3.462120954E0,1.988048255E-1,9.214530140E-2,-2.045306265E-1
3.464131110E0,2.073269337E-1,9.534109384E-2,-1.992042959E-1
3.466141266E0,2.147837877E-1,1.017326787E-1,-1.917474568E-1
3.468151423E0,2.233058959E-1,1.049284711E-1,-1.853558719E-1
3.470161579E0,2.339585274E-1,1.049284711E-1,-1.778990328E-1
3.472171735E0,2.467416972E-1,1.006674170E-1,-1.715074480E-1
3.474181891E0,2.552638054E-1,9.001477808E-2,-1.651158631E-1
3.476192048E0,2.659164369E-1,8.042740822E-2,-1.587242782E-1
3.478202204E0,2.808301151E-1,7.403582335E-2,-1.533979625E-1
3.480212360E0,2.936132848E-1,7.297056168E-2,-1.459411234E-1
3.482222516E0,3.063964546E-1,7.403582335E-2,-1.384842694E-1
3.484232673E0,3.191796243E-1,8.255793154E-2,-1.320926845E-1
3.486242829E0,3.319627941E-1,8.575372398E-2,-1.203747913E-1
3.488252985E0,3.394196332E-1,8.468846232E-2,-1.033305749E-1
3.490263141E0,3.479417264E-1,8.894951642E-2,-8.522108942E-2
3.492273298E0,3.564638495E-1,9.214530140E-2,-7.243792713E-2
3.494283454E0,3.639206886E-1,9.853688627E-2,-6.285055727E-2
3.496293610E0,3.745733202E-1,1.059937328E-1,-5.645897239E-2
3.498303766E0,3.830954432E-1,1.134505793E-1,-5.752423778E-2
3.500313923E0,3.948133290E-1,1.187768951E-1,-6.072002649E-2
3.502324079E0,4.065312445E-1,1.294295341E-1,-6.711161137E-2
3.504334235E0,4.214449227E-1,1.368863732E-1,-7.350318879E-2
3.506344391E0,4.352933466E-1,1.454084814E-1,-7.669898123E-2
3.508354548E0,4.491417706E-1,1.518000662E-1,-8.309056610E-2
3.510364704E0,4.597944319E-1,1.560611278E-1,-8.522108942E-2
3.512374860E0,4.736428559E-1,1.613874435E-1,-8.841688186E-2
3.514385016E0,4.821649492E-1,1.656484902E-1,-9.267793596E-2
3.516395173E0,4.906870723E-1,1.699095517E-1,-9.267793596E-2
3.518405329E0,4.992091656E-1,1.731053442E-1,-9.587372839E-2
3.520415485E0,5.034702420E-1,1.773663908E-1,-9.800425172E-2
3.522425641E0,5.056007504E-1,1.805621833E-1,-9.906952083E-2
3.524435798E0,5.087965727E-1,1.837579757E-1,-1.012000442E-1
3.526445954E0,5.098618269E-1,1.869537681E-1,-1.043958366E-1
3.528456110E0,5.098618269E-1,1.890842915E-1,-1.054610983E-1
3.530466266E0,5.087965727E-1,1.858884990E-1,-1.043958366E-1
3.532476423E0,5.045354962E-1,1.794969290E-1,-1.001347825E-1
3.534486579E0,4.970786572E-1,1.720400751E-1,-1.001347825E-1
3.536496735E0,4.906870723E-1,1.635179669E-1,-9.693899006E-2
3.538506891E0,4.810996950E-1,1.571263820E-1,-9.480846673E-2
3.540517048E0,4.736428559E-1,1.475390196E-1,-9.480846673E-2
3.542527204E0,4.640554786E-1,1.422126889E-1,-9.374319762E-2
3.544537360E0,4.523375630E-1,1.368863732E-1,-9.800425172E-2
3.546547516E0,4.427502155E-1,1.368863732E-1,-1.054610983E-1
3.548557673E0,4.320975542E-1,1.411474347E-1,-1.118526831E-1
3.550567829E0,4.203796685E-1,1.443432271E-1,-1.182442605E-1
3.552577985E0,4.075964987E-1,1.518000662E-1,-1.267663687E-1
3.554588141E0,3.948133290E-1,1.603221744E-1,-1.363537461E-1
3.556598350E0,3.820301592E-1,1.688442826E-1,-1.438105851E-1
3.558608558E0,3.724428117E-1,1.773663908E-1,-1.523326933E-1
3.560618766E0,3.596596420E-1,1.848232448E-1,-1.597895473E-1
3.562628975E0,3.490070105E-1,1.901495606E-1,-1.672463864E-1
3.564639183E0,3.415501416E-1,1.965411454E-1,-1.725727171E-1
3.566649391E0,3.308975101E-1,1.997369379E-1,-1.757684946E-1
3.568659600E0,3.266364634E-1,1.986716688E-1,-1.789642870E-1
3.570669808E0,3.213101327E-1,1.944106072E-1,-1.800295562E-1
3.572680016E0,3.202448785E-1,1.901495606E-1,-1.789642870E-1
3.574690225E0,3.181143403E-1,1.816274524E-1,-1.768337637E-1
3.576700433E0,3.223754168E-1,1.720400751E-1,-1.747032404E-1
3.578710641E0,3.255712092E-1,1.539305896E-1,-1.683116555E-1
3.580720850E0,3.298322558E-1,1.379516423E-1,-1.640505940E-1
3.582731058E0,3.319627941E-1,1.187768951E-1,-1.576590240E-1
3.584741266E0,3.330280483E-1,1.027979404E-1,-1.491369158E-1
3.586751475E0,3.362238407E-1,8.362319320E-2,-1.406148076E-1
3.588761683E0,3.404848874E-1,6.551371515E-2,-1.342232227E-1
3.590771891E0,3.447459340E-1,4.740423337E-2,-1.246358454E-1
3.592782100E0,3.500722647E-1,3.036001325E-2,-1.171789989E-1
3.594792308E0,3.564638495E-1,1.544632297E-2,-1.065263674E-1
3.596802516E0,3.628554344E-1,4.793686327E-3,-9.693899006E-2
3.598812725E0,3.724428117E-1,-3.728422802E-3,-9.267793596E-2
3.600822933E0,3.841606975E-1,-1.331579592E-2,-8.841688186E-2
3.602833141E0,3.937480748E-1,-1.757685095E-2,-8.415582776E-2
3.604843350E0,4.054659605E-1,-2.290316857E-2,-7.882951200E-2
3.606853558E0,4.150533378E-1,-1.970737800E-2,-7.563371956E-2
3.608863766E0,4.246407151E-1,-1.757685095E-2,-7.350318879E-2
3.610873975E0,4.289017618E-1,-1.864211448E-2,-7.350318879E-2
3.612884183E0,4.363586307E-1,-2.183790505E-2,-7.669898123E-2
3.614894391E0,4.395544231E-1,-2.183790505E-2,-8.096003532E-2
3.616904600E0,4.438154697E-1,-2.183790505E-2,-8.628635854E-2
3.618914808E0,4.448807240E-1,-1.970737800E-2,-9.267793596E-2
3.620925016E0,4.438154697E-1,-1.651158556E-2,-1.012000442E-1
3.622935225E0,4.438154697E-1,-1.331579592E-2,-1.075916290E-1
3.624945433E0,4.395544231E-1,-1.118526794E-2,-1.139832065E-1
3.626955641E0,4.342280924E-1,-1.438105945E-2,-1.225053221E-1
3.628965850E0,4.235754609E-1,-2.077264152E-2,-1.288969070E-1
3.630976058E0,4.171838760E-1,-2.290316857E-2,-1.352884769E-1
3.632986266E0,4.075964987E-1,-2.183790505E-2,-1.416800618E-1
3.634996475E0,3.948133290E-1,-2.183790505E-2,-1.512674391E-1
3.637006631E0,3.809649050E-1,-1.651158556E-2,-1.587242782E-1
3.639016787E0,3.628554344E-1,-1.225053146E-2,-1.693769246E-1
3.641026943E0,3.436806798E-1,-2.663159044E-3,-1.736379713E-1
3.643037100E0,3.234406710E-1,2.663159044E-3,-1.810948253E-1
3.645047256E0,3.053312004E-1,9.054740891E-3,-1.864211410E-1
3.647057412E0,2.818953991E-1,1.331579592E-2,-1.906821877E-1
3.649067568E0,2.595248520E-1,1.864211448E-2,-1.928127259E-1
3.651077725E0,2.392848432E-1,2.077264152E-2,-1.949432492E-1
3.653087881E0,2.169143111E-1,2.290316857E-2,-2.002695650E-1
3.655098037E0,1.945437789E-1,2.716422267E-2,-2.034653574E-1
3.657108193E0,1.732385010E-1,3.036001325E-2,-2.055958807E-1
3.659118350E0,1.529984921E-1,3.249054030E-2,-2.077264041E-1
3.661128506E0,1.348890066E-1,3.462106735E-2,-2.119874656E-1
3.663138662E0,1.146489978E-1,3.675159439E-2,-2.141179889E-1
3.665148818E0,9.973530471E-2,3.568633273E-2,-2.173137814E-1
3.667158975E0,8.375635743E-2,3.675159439E-2,-2.183790505E-1
3.669169131E0,6.884266436E-2,3.675159439E-2,-2.173137814E-1
3.671179287E0,5.392897129E-2,3.462106735E-2,-2.194443047E-1
3.673189443E0,4.114580899E-2,3.036001325E-2,-2.173137814E-1
3.675199600E0,2.623211779E-2,2.929474972E-2,-2.162485123E-1
3.677209756E0,1.238369010E-2,2.503369562E-2,-2.119874656E-1
3.679219912E0,1.731053460E-3,1.864211448E-2,-2.119874656E-1
3.681230068E0,-1.424790081E-2,1.438105945E-2,-2.077264041E-1
3.683240225E0,-2.490053698E-2,1.012000442E-2,-2.066611499E-1
3.685250381E0,-3.661843762E-2,3.728422802E-3,-2.024000883E-1
3.687260537E0,-4.833633825E-2,-2.663159044E-3,-2.002695650E-1
3.689270693E0,-5.685844645E-2,-1.012000442E-2,-1.981390417E-1
3.691280850E0,-6.751108170E-2,-1.864211448E-2,-1.960085034E-1
3.693291006E0,-7.709845901E-2,-2.396843210E-2,-1.906821877E-1
3.695304391E0,-8.881635964E-2,-2.929474972E-2,-1.885516644E-1
3.697309443E0,-9.733846784E-2,-3.249054030E-2,-1.864211410E-1
3.699314495E0,-1.069258377E-1,-3.568633273E-2,-1.832253486E-1
3.701320016E0,-1.175784767E-1,-3.888212144E-2,-1.757684946E-1
3.703326214E0,-1.282311082E-1,-4.527370632E-2,-1.651158631E-1
3.705333193E0,-1.346226931E-1,-4.953476042E-2,-1.544632316E-1
3.707341058E0,-1.410142779E-1,-5.379581451E-2,-1.427453309E-1
3.709349860E0,-1.506016403E-1,-5.912213027E-2,-1.331579536E-1
3.711359600E0,-1.527321786E-1,-6.657897681E-2,-1.278316379E-1
3.713370277E0,-1.601890177E-1,-6.764423847E-2,-1.246358454E-1
3.715381839E0,-1.623195410E-1,-7.297056168E-2,-1.225053221E-1
3.717394183E0,-1.633848101E-1,-7.723161578E-2,-1.203747913E-1
3.719407204E0,-1.676458716E-1,-7.936213911E-2,-1.161137372E-1
3.721420745E0,-1.697763950E-1,-8.362319320E-2,-1.129179448E-1
3.723434652E0,-1.719069183E-1,-8.681898564E-2,-1.129179448E-1
3.725448766E0,-1.729721874E-1,-8.788424730E-2,-1.107874215E-1
3.727462933E0,-1.751027107E-1,-8.894951642E-2,-1.086568907E-1
3.729474756E0,-1.772332340E-1,-9.427583218E-2,-1.043958366E-1
3.731484912E0,-1.782985032E-1,-9.427583218E-2,-9.906952083E-2
3.733495068E0,-1.825595498E-1,-9.427583218E-2,-9.267793596E-2
3.735505225E0,-1.846900880E-1,-8.894951642E-2,-8.735162020E-2
3.737515381E0,-1.868206114E-1,-8.149266988E-2,-8.415582776E-2
3.739525537E0,-1.857553422E-1,-7.084003091E-2,-7.989477366E-2
3.741535693E0,-1.846900880E-1,-6.125266105E-2,-7.776424289E-2
3.743545850E0,-1.825595498E-1,-4.953476042E-2,-7.776424289E-2
3.745556006E0,-1.814942956E-1,-4.101264849E-2,-7.776424289E-2
3.747566162E0,-1.782985032E-1,-3.142527863E-2,-7.882951200E-2
3.749576318E0,-1.729721874E-1,-2.290316857E-2,-8.096003532E-2
3.751586475E0,-1.697763950E-1,-1.757685095E-2,-8.096003532E-2
3.753596631E0,-1.644500792E-1,-1.225053146E-2,-8.415582776E-2
3.755606787E0,-1.612542868E-1,-7.989477366E-3,-8.415582776E-2
3.757616943E0,-1.537974328E-1,-6.924213842E-3,-8.628635854E-2
3.759627100E0,-1.506016403E-1,-1.597895520E-3,-8.735162020E-2
3.761637256E0,-1.431448013E-1,-1.597895520E-3,-9.054741263E-2
3.763647412E0,-1.378184855E-1,-1.597895520E-3,-9.267793596E-2
3.765657568E0,-1.335574239E-1,-5.326318205E-4,-9.480846673E-2
3.767667725E0,-1.239700541E-1,1.597895520E-3,-9.480846673E-2
3.769677881E0,-1.197090000E-1,-1.597895520E-3,-9.480846673E-2
3.771688037E0,-1.133174226E-1,5.326318205E-4,-9.800425172E-2
3.773698193E0,-1.058605760E-1,-1.597895520E-3,-9.693899006E-2
3.775708350E0,-9.946899116E-2,-5.326318205E-4,-9.800425172E-2
3.777718506E0,-9.307741374E-2,-5.326318205E-4,-9.800425172E-2
3.779728662E0,-8.881635964E-2,-5.326318205E-4,-9.800425172E-2
3.781738818E0,-8.242477477E-2,-2.663159044E-3,-9.800425172E-2
3.783748975E0,-7.922898233E-2,-1.597895520E-3,-1.012000442E-1
3.785759131E0,-7.283740491E-2,-1.597895520E-3,-1.012000442E-1
3.787769287E0,-6.964161247E-2,-1.597895520E-3,-1.033305749E-1
3.789779443E0,-6.751108170E-2,-2.663159044E-3,-1.054610983E-1
3.791789600E0,-6.325002760E-2,-3.728422802E-3,-1.086568907E-1
3.793799756E0,-6.005423889E-2,-3.728422802E-3,-1.097221524E-1
3.795809912E0,-5.472791940E-2,-5.326318205E-4,-1.129179448E-1
3.797820068E0,-5.046686530E-2,5.326318205E-4,-1.150484756E-1
3.799830225E0,-4.620581120E-2,-5.326318205E-4,-1.161137372E-1
3.801840381E0,-4.620581120E-2,2.663159044E-3,-1.161137372E-1
3.803850537E0,-4.514054582E-2,3.728422802E-3,-1.193095297E-1
3.805860693E0,-4.407528415E-2,4.793686327E-3,-1.193095297E-1
3.807870850E0,-4.301001877E-2,4.793686327E-3,-1.182442605E-1
3.809881006E0,-4.407528415E-2,9.054740891E-3,-1.193095297E-1
3.811891162E0,-4.514054582E-2,5.858949851E-3,-1.182442605E-1
3.813901318E0,-4.833633825E-2,6.924213842E-3,-1.171789989E-1
3.815911475E0,-4.727107286E-2,5.858949851E-3,-1.161137372E-1
3.817921631E0,-5.046686530E-2,6.924213842E-3,-1.139832065E-1
3.819931787E0,-5.259739235E-2,6.924213842E-3,-1.139832065E-1
3.821941943E0,-5.259739235E-2,6.924213842E-3,-1.097221524E-1
3.823952100E0,-5.259739235E-2,5.858949851E-3,-1.065263674E-1
3.825962256E0,-5.366265774E-2,6.924213842E-3,-1.012000442E-1
3.827972412E0,-5.153212696E-2,3.728422802E-3,-9.480846673E-2
3.829982568E0,-5.153212696E-2,2.663159044E-3,-8.841688186E-2
3.831992725E0,-4.940159991E-2,-1.597895520E-3,-8.096003532E-2
3.834002881E0,-4.833633825E-2,-4.793686327E-3,-7.563371956E-2
3.836013037E0,-4.194475710E-2,-9.054740891E-3,-6.817687303E-2
3.838023193E0,-3.981423005E-2,-1.438105945E-2,-6.178529188E-2
3.840033350E0,-3.342264518E-2,-1.651158556E-2,-5.432844535E-2
3.842043506E0,-2.383527346E-2,-2.077264152E-2,-4.793686420E-2
3.844053662E0,-1.424790081E-2,-2.716422267E-2,-4.367581010E-2
3.846063818E0,-7.856319658E-3,-3.036001325E-2,-3.941475600E-2
3.848073975E0,5.992108025E-3,-3.462106735E-2,-3.621896356E-2
3.850084131E0,1.664474420E-2,-3.781685978E-2,-3.515370190E-2
3.852094287E0,2.729738131E-2,-4.314317927E-2,-3.195790946E-2
3.854104443E0,4.008054361E-2,-4.633896798E-2,-3.089264594E-2
3.856114600E0,5.392897129E-2,-5.060002208E-2,-3.195790946E-2
3.858124808E0,6.564687192E-2,-5.273054913E-2,-3.195790946E-2
3.860135016E0,7.629951090E-2,-5.486107618E-2,-3.302317113E-2
3.862145225E0,8.908267319E-2,-5.699160323E-2,-3.302317113E-2
3.864155433E0,1.029310971E-1,-5.592634156E-2,-3.302317113E-2
3.866165641E0,1.146489978E-1,-5.379581451E-2,-3.834949061E-2
3.868175850E0,1.253016293E-1,-4.846949503E-2,-3.941475600E-2
3.870186058E0,1.370195299E-1,-4.527370632E-2,-4.580633715E-2
3.872196266E0,1.519332230E-1,-3.781685978E-2,-5.113265663E-2
3.874206475E0,1.668469161E-1,-3.142527863E-2,-5.645897239E-2
3.876216683E0,1.796300858E-1,-2.609895915E-2,-6.178529188E-2
3.878226891E0,1.913479865E-1,-2.077264152E-2,-6.604634225E-2
3.880237100E0,2.051964104E-1,-1.225053146E-2,-7.137266546E-2
3.882247308E0,2.137185186E-1,-1.012000442E-2,-7.776424289E-2
3.884257516E0,2.211753577E-1,-6.924213842E-3,-8.202529699E-2
3.886267725E0,2.275669426E-1,-3.728422802E-3,-8.735162020E-2
3.888277933E0,2.318280041E-1,-5.326318205E-4,-9.267793596E-2
3.890288141E0,2.392848432E-1,3.728422802E-3,-9.693899006E-2
3.892298350E0,2.435459048E-1,7.989477366E-3,-1.043958366E-1
3.894308558E0,2.456764281E-1,1.757685095E-2,-1.107874215E-1
3.896318766E0,2.499374747E-1,2.077264152E-2,-1.150484756E-1
3.898328975E0,2.520680130E-1,2.290316857E-2,-1.193095297E-1
3.900339183E0,2.531332672E-1,1.970737800E-2,-1.235705838E-1
3.902349391E0,2.531332672E-1,2.396843210E-2,-1.267663687E-1
3.904359600E0,2.531332672E-1,2.929474972E-2,-1.257011145E-1
3.906369808E0,2.510027587E-1,3.142527863E-2,-1.257011145E-1
3.908380016E0,2.499374747E-1,3.462106735E-2,-1.288969070E-1
3.910390225E0,2.488722205E-1,3.675159439E-2,-1.257011145E-1
3.912400433E0,2.488722205E-1,4.101264849E-2,-1.267663687E-1
3.914410641E0,2.424806356E-1,4.314317927E-2,-1.257011145E-1
3.916420850E0,2.392848432E-1,4.633896798E-2,-1.288969070E-1
3.918431058E0,2.318280041E-1,5.060002208E-2,-1.278316379E-1
3.920441266E0,2.275669426E-1,5.379581451E-2,-1.278316379E-1
3.922451475E0,2.211753577E-1,6.018739566E-2,-1.299621612E-1
3.924461683E0,2.137185186E-1,6.657897681E-2,-1.299621612E-1
3.926471891E0,2.073269337E-1,7.297056168E-2,-1.310274303E-1
3.928482100E0,2.009353489E-1,7.829687744E-2,-1.331579536E-1
3.930492308E0,1.934785098E-1,8.149266988E-2,-1.342232227E-1
3.932502516E0,1.849564016E-1,8.894951642E-2,-1.352884769E-1
3.934512725E0,1.806953400E-1,9.427583218E-2,-1.352884769E-1
3.936522881E0,1.764342934E-1,9.853688627E-2,-1.342232227E-1
3.938533037E0,1.711079776E-1,1.059937328E-1,-1.363537461E-1
3.940543193E0,1.657816470E-1,1.123853177E-1,-1.352884769E-1
3.942553350E0,1.625858694E-1,1.145158410E-1,-1.363537461E-1
3.944563870E0,1.593900770E-1,1.123853177E-1,-1.342232227E-1
3.946573766E0,1.572595388E-1,1.113200486E-1,-1.310274303E-1
3.948583662E0,1.551290154E-1,1.113200486E-1,-1.257011145E-1
3.950593558E0,1.519332230E-1,1.081242561E-1,-1.171789989E-1
3.952603454E0,1.498026997E-1,1.059937328E-1,-1.107874215E-1
3.954613350E0,1.487374306E-1,1.006674170E-1,-9.906952083E-2
3.956623298E0,1.487374306E-1,9.321057051E-2,-8.948214352E-2
3.958633298E0,1.487374306E-1,8.575372398E-2,-8.096003532E-2
3.960643350E0,1.498026997E-1,7.829687744E-2,-7.243792713E-2
3.962653454E0,1.498026997E-1,6.977476925E-2,-6.178529188E-2
3.964663610E0,1.529984921E-1,5.805686861E-2,-5.432844535E-2
3.966673818E0,1.561942846E-1,4.633896798E-2,-4.687159881E-2
3.968684079E0,1.625858694E-1,3.355580568E-2,-3.941475600E-2
3.970694391E0,1.647163928E-1,2.183790505E-2,-3.515370190E-2
3.972704756E0,1.679121852E-1,1.331579592E-2,-3.195790946E-2
3.974715120E0,1.679121852E-1,1.225053146E-2,-2.982738242E-2
3.976725485E0,1.721732318E-1,1.118526794E-2,-2.769685537E-2
3.978735850E0,1.700427085E-1,1.544632297E-2,-2.343579940E-2
3.980746214E0,1.700427085E-1,1.757685095E-2,-1.917474531E-2
3.982756579E0,1.700427085E-1,2.077264152E-2,-1.597895473E-2
3.984766943E0,1.679121852E-1,2.716422267E-2,-1.384842768E-2
3.986777308E0,1.679121852E-1,2.929474972E-2,-9.587372653E-3
3.988787464E0,1.668469161E-1,3.355580568E-2,-8.522109129E-3
3.990797620E0,1.679121852E-1,3.888212144E-2,-4.261054564E-3
